aX,aY,aZ,gX,gY,gZ
3.06,2.66,8.64,0.43,-0.21,0.29
3.06,2.69,8.39,0.46,-0.22,0.28
3.20,2.73,8.09,0.48,-0.20,0.27
3.35,2.76,7.86,0.51,-0.16,0.26
3.38,2.82,7.68,0.54,-0.10,0.23
3.26,2.92,7.48,0.56,-0.05,0.21
3.13,3.07,7.28,0.57,-0.02,0.20
3.11,3.22,7.08,0.56,0.00,0.21
3.23,3.34,6.91,0.53,0.01,0.20
3.39,3.41,6.76,0.50,0.02,0.18
3.59,3.44,6.63,0.47,0.02,0.16
3.80,3.42,6.59,0.43,0.04,0.13
3.91,3.43,6.62,0.41,0.06,0.08
3.90,3.47,6.61,0.39,0.09,0.03
3.85,3.49,6.59,0.37,0.12,-0.01
3.72,3.50,6.55,0.34,0.16,-0.05
3.48,3.54,6.48,0.31,0.19,-0.08
3.15,3.62,6.49,0.26,0.20,-0.09
2.86,3.73,6.65,0.19,0.18,-0.07
2.80,3.79,6.90,0.12,0.13,-0.02
3.03,3.77,7.18,0.06,0.09,0.03
3.40,3.78,7.39,0.03,0.06,0.05
3.75,3.85,7.52,0.01,0.05,0.06
4.02,3.94,7.65,-0.01,0.02,0.06
4.23,3.96,7.89,-0.02,-0.01,0.05
4.38,3.94,8.16,-0.01,-0.04,0.03
4.49,3.97,8.33,0.04,-0.05,0.00
4.62,4.04,8.36,0.09,-0.04,-0.03
4.68,4.12,8.31,0.15,-0.03,-0.10
4.58,4.24,8.23,0.20,-0.03,-0.17
4.42,4.34,8.15,0.25,-0.02,-0.23
4.31,4.40,7.99,0.30,-0.00,-0.28
4.26,4.43,7.74,0.35,0.03,-0.33
4.22,4.42,7.41,0.38,0.09,-0.39
4.07,4.42,7.07,0.41,0.15,-0.44
3.83,4.45,6.80,0.41,0.20,-0.49
3.51,4.51,6.67,0.40,0.23,-0.51
3.24,4.54,6.70,0.38,0.22,-0.52
3.05,4.56,6.78,0.37,0.21,-0.52
2.91,4.58,6.90,0.37,0.20,-0.52
2.80,4.62,6.96,0.38,0.17,-0.52
2.73,4.65,6.98,0.38,0.12,-0.52
2.70,4.62,6.98,0.38,0.07,-0.52
2.73,4.60,6.99,0.39,0.03,-0.52
2.83,4.61,6.97,0.42,0.02,-0.53
2.95,4.65,6.91,0.45,0.03,-0.55
3.05,4.70,6.86,0.48,0.05,-0.57
3.06,4.76,6.88,0.51,0.08,-0.60
2.98,4.86,6.94,0.54,0.11,-0.64
2.83,5.01,6.90,0.58,0.14,-0.66
2.62,5.18,6.85,0.60,0.15,-0.67
2.43,5.37,6.73,0.61,0.14,-0.67
2.24,5.55,6.61,0.60,0.11,-0.65
2.14,5.70,6.45,0.56,0.07,-0.62
2.16,5.77,6.24,0.51,0.05,-0.59
2.29,5.75,6.07,0.44,0.04,-0.56
2.36,5.68,5.94,0.38,0.05,-0.54
2.28,5.66,5.84,0.32,0.08,-0.52
2.13,5.66,5.76,0.26,0.10,-0.49
2.00,5.66,5.77,0.19,0.12,-0.45
1.96,5.60,5.88,0.12,0.13,-0.42
1.90,5.50,6.08,0.06,0.12,-0.40
1.78,5.44,6.33,0.03,0.11,-0.38
1.71,5.39,6.52,0.01,0.09,-0.35
1.71,5.37,6.67,0.01,0.06,-0.33
1.77,5.40,6.78,0.01,0.04,-0.32
1.85,5.42,6.92,0.03,0.03,-0.31
1.92,5.42,7.01,0.05,0.03,-0.32
2.00,5.39,7.05,0.09,0.04,-0.32
2.02,5.40,7.10,0.13,0.06,-0.33
1.99,5.49,7.09,0.17,0.08,-0.34
1.91,5.62,7.07,0.21,0.09,-0.34
1.82,5.74,7.10,0.23,0.09,-0.33
1.80,5.83,7.11,0.26,0.09,-0.32
1.82,5.94,7.09,0.28,0.09,-0.31
1.83,6.09,7.07,0.31,0.08,-0.30
1.81,6.24,7.05,0.33,0.07,-0.28
1.78,6.34,6.95,0.37,0.06,-0.26
1.77,6.43,6.75,0.38,0.06,-0.25
1.79,6.46,6.62,0.36,0.04,-0.24
1.81,6.44,6.58,0.34,0.02,-0.25
1.78,6.41,6.57,0.34,0.01,-0.26
1.69,6.40,6.51,0.34,0.01,-0.26
1.55,6.43,6.40,0.35,0.02,-0.26
1.39,6.48,6.31,0.35,0.01,-0.24
1.29,6.55,6.27,0.36,0.01,-0.21
1.31,6.57,6.19,0.37,0.01,-0.17
1.38,6.57,6.05,0.38,0.01,-0.15
1.40,6.58,5.87,0.37,0.02,-0.14
1.35,6.62,5.67,0.35,0.03,-0.13
1.30,6.66,5.48,0.33,0.04,-0.12
1.27,6.70,5.38,0.30,0.05,-0.10
1.28,6.69,5.36,0.26,0.07,-0.08
1.27,6.64,5.40,0.23,0.07,-0.06
1.24,6.59,5.45,0.21,0.08,-0.05
1.17,6.56,5.48,0.20,0.07,-0.04
1.11,6.53,5.54,0.19,0.06,-0.03
1.13,6.50,5.59,0.18,0.05,-0.01
1.19,6.45,5.66,0.17,0.05,-0.01
1.25,6.38,5.69,0.18,0.05,-0.02
1.27,6.36,5.71,0.20,0.07,-0.02
1.31,6.35,5.72,0.22,0.10,-0.03
1.32,6.34,5.77,0.24,0.13,-0.03
1.25,6.39,5.80,0.27,0.16,-0.04
1.10,6.48,5.82,0.30,0.19,-0.04
0.97,6.61,5.79,0.33,0.20,-0.03
0.92,6.75,5.71,0.34,0.19,-0.00
0.96,6.84,5.65,0.34,0.18,0.03
1.05,6.90,5.61,0.34,0.17,0.05
1.11,6.95,5.57,0.33,0.15,0.07
1.16,6.98,5.49,0.33,0.14,0.08
1.18,7.01,5.39,0.33,0.14,0.09
1.19,7.06,5.27,0.32,0.15,0.11
1.22,7.10,5.21,0.30,0.16,0.12
1.26,7.13,5.22,0.28,0.16,0.14
1.27,7.16,5.26,0.27,0.17,0.14
1.30,7.15,5.30,0.27,0.19,0.16
1.35,7.14,5.33,0.28,0.21,0.17
1.40,7.22,5.27,0.30,0.22,0.18
1.47,7.32,5.22,0.32,0.23,0.19
1.52,7.40,5.11,0.31,0.22,0.18
1.57,7.48,5.04,0.29,0.20,0.17
1.61,7.52,4.98,0.26,0.19,0.15
1.66,7.54,4.94,0.24,0.18,0.13
1.72,7.56,4.91,0.22,0.18,0.11
1.75,7.58,4.87,0.22,0.18,0.09
1.74,7.58,4.78,0.21,0.18,0.07
1.68,7.58,4.71,0.19,0.17,0.04
1.62,7.57,4.66,0.17,0.16,0.03
1.61,7.55,4.64,0.15,0.16,0.02
1.63,7.53,4.62,0.14,0.15,0.00
1.60,7.54,4.58,0.12,0.16,-0.01
1.53,7.58,4.55,0.11,0.15,-0.03
1.45,7.63,4.55,0.08,0.13,-0.03
1.39,7.67,4.62,0.05,0.10,-0.03
1.40,7.68,4.69,0.03,0.08,-0.02
1.45,7.68,4.73,0.01,0.07,-0.02
1.48,7.66,4.76,-0.00,0.06,-0.03
1.51,7.64,4.83,-0.01,0.07,-0.03
1.48,7.67,4.91,-0.01,0.07,-0.04
1.41,7.72,4.98,-0.01,0.07,-0.05
1.34,7.76,5.02,-0.01,0.06,-0.05
1.34,7.76,5.05,-0.01,0.04,-0.04
1.41,7.72,5.09,-0.01,0.03,-0.04
1.49,7.65,5.13,0.00,0.03,-0.05
1.54,7.58,5.16,0.02,0.04,-0.06
1.53,7.52,5.20,0.04,0.05,-0.08
1.48,7.48,5.25,0.07,0.07,-0.10
1.44,7.48,5.29,0.11,0.09,-0.11
1.37,7.52,5.28,0.15,0.11,-0.12
1.26,7.61,5.17,0.18,0.12,-0.13
1.15,7.71,5.03,0.19,0.13,-0.13
1.08,7.78,4.89,0.19,0.12,-0.11
1.06,7.80,4.79,0.18,0.11,-0.10
1.05,7.81,4.70,0.16,0.11,-0.08
1.04,7.86,4.62,0.14,0.11,-0.07
1.02,7.90,4.53,0.11,0.11,-0.05
0.97,7.93,4.50,0.08,0.10,-0.03
0.92,7.93,4.49,0.05,0.09,-0.01
0.91,7.90,4.56,0.01,0.07,0.01
0.95,7.86,4.63,-0.02,0.05,0.03
0.97,7.84,4.69,-0.04,0.04,0.04
0.99,7.83,4.72,-0.05,0.03,0.05
1.01,7.78,4.76,-0.06,0.02,0.06
1.05,7.73,4.81,-0.07,0.02,0.07
1.13,7.67,4.87,-0.07,0.01,0.07
1.22,7.64,4.86,-0.06,0.02,0.06
1.26,7.64,4.81,-0.06,0.02,0.05
1.26,7.64,4.74,-0.05,0.03,0.03
1.23,7.65,4.66,-0.05,0.04,0.03
1.23,7.64,4.64,-0.06,0.05,0.03
1.23,7.62,4.64,-0.07,0.05,0.02
1.19,7.60,4.61,-0.08,0.06,0.02
1.10,7.60,4.58,-0.09,0.06,0.02
1.03,7.61,4.55,-0.10,0.07,0.04
1.01,7.63,4.54,-0.13,0.06,0.05
1.03,7.64,4.58,-0.15,0.06,0.07
1.07,7.65,4.64,-0.16,0.05,0.08
1.13,7.65,4.71,-0.18,0.04,0.10
1.17,7.65,4.81,-0.18,0.03,0.10
1.20,7.67,4.91,-0.18,0.03,0.11
1.27,7.69,4.96,-0.17,0.04,0.11
1.38,7.71,5.01,-0.16,0.04,0.12
1.45,7.72,5.06,-0.15,0.05,0.12
1.50,7.71,5.13,-0.14,0.06,0.11
1.52,7.69,5.17,-0.12,0.08,0.11
1.51,7.68,5.20,-0.10,0.09,0.10
1.50,7.70,5.22,-0.09,0.10,0.10
1.46,7.71,5.21,-0.07,0.11,0.10
1.40,7.74,5.19,-0.07,0.10,0.11
1.35,7.75,5.15,-0.06,0.10,0.13
1.38,7.72,5.10,-0.06,0.10,0.15
1.46,7.67,5.05,-0.06,0.10,0.17
1.52,7.62,5.00,-0.06,0.10,0.17
1.54,7.59,4.96,-0.06,0.11,0.17
1.53,7.56,4.97,-0.07,0.11,0.16
1.52,7.53,5.00,-0.07,0.12,0.15
1.52,7.49,5.08,-0.07,0.14,0.13
1.51,7.47,5.17,-0.06,0.15,0.11
1.47,7.51,5.26,-0.05,0.17,0.09
aX,aY,aZ,gX,gY,gZ
-6.37,9.73,-1.18,1.63,1.23,1.39
-6.13,9.01,-1.49,1.38,1.25,1.78
-5.66,8.22,-1.75,1.14,1.33,2.16
-5.10,7.35,-1.78,0.91,1.46,2.54
-4.53,6.43,-1.74,0.70,1.61,2.90
-3.99,5.47,-1.63,0.48,1.76,3.24
-3.47,4.50,-1.57,0.26,1.87,3.55
-3.00,3.50,-1.58,0.00,1.92,3.82
-2.62,2.56,-1.58,-0.29,1.88,4.05
-2.17,1.72,-1.48,-0.63,1.77,4.24
-1.53,0.95,-1.26,-0.98,1.59,4.40
-0.69,0.22,-0.86,-1.31,1.41,4.50
0.11,-0.40,-0.08,-1.58,1.23,4.54
0.76,-0.87,0.88,-1.79,1.06,4.57
1.52,-1.37,2.04,-1.94,0.86,4.61
2.65,-2.02,3.25,-2.05,0.63,4.65
4.34,-2.81,4.33,-2.11,0.45,4.66
6.51,-3.57,4.93,-2.04,0.40,4.58
8.56,-3.94,5.13,-1.88,0.52,4.38
10.17,-4.15,5.41,-1.67,0.69,4.11
11.18,-4.18,6.14,-1.45,0.81,3.78
11.80,-3.93,7.29,-1.24,0.84,3.48
12.55,-3.59,8.67,-1.02,0.80,3.26
13.73,-3.50,9.79,-0.78,0.69,3.07
15.16,-3.64,10.55,-0.55,0.54,2.84
16.69,-3.87,10.89,-0.32,0.37,2.56
18.17,-4.00,10.86,-0.08,0.30,2.22
18.90,-3.97,10.89,0.19,0.31,1.79
18.55,-3.78,10.70,0.46,0.24,1.33
18.04,-3.72,10.24,0.64,0.07,0.96
18.21,-3.96,9.77,0.71,-0.16,0.63
18.56,-4.29,9.33,0.78,-0.37,0.22
18.38,-4.51,8.72,0.89,-0.50,-0.28
17.50,-4.54,7.99,0.99,-0.61,-0.78
16.31,-4.44,7.22,1.05,-0.72,-1.25
15.03,-4.24,6.55,1.05,-0.86,-1.68
13.79,-4.02,5.86,1.02,-1.03,-2.07
12.59,-3.77,5.15,0.96,-1.21,-2.42
11.47,-3.47,4.56,0.86,-1.38,-2.72
10.50,-3.04,4.05,0.75,-1.54,-2.97
9.70,-2.43,3.56,0.65,-1.65,-3.16
9.19,-1.86,3.19,0.55,-1.75,-3.30
8.92,-1.45,2.97,0.44,-1.84,-3.44
8.77,-1.21,2.77,0.34,-1.91,-3.60
8.56,-1.02,2.58,0.25,-1.93,-3.77
8.25,-0.72,2.38,0.17,-1.91,-3.95
7.85,-0.37,2.28,0.10,-1.87,-4.11
7.33,-0.06,2.17,0.04,-1.83,-4.28
6.80,0.17,1.85,-0.04,-1.78,-4.44
6.24,0.42,1.45,-0.18,-1.73,-4.60
5.49,0.71,1.26,-0.35,-1.70,-4.76
4.62,1.07,1.16,-0.51,-1.68,-4.89
3.79,1.51,0.96,-0.64,-1.63,-4.97
2.98,1.99,0.93,-0.76,-1.55,-4.98
2.30,2.38,0.90,-0.84,-1.43,-4.94
1.63,2.71,0.93,-0.88,-1.25,-4.88
0.83,3.03,1.15,-0.88,-1.05,-4.82
-0.12,3.35,1.34,-0.84,-0.91,-4.77
-1.17,3.62,1.48,-0.81,-0.81,-4.72
-2.26,3.89,1.64,-0.78,-0.75,-4.67
-3.38,4.22,1.80,-0.75,-0.67,-4.60
-4.51,4.62,1.77,-0.68,-0.61,-4.53
-5.68,5.06,1.45,-0.58,-0.51,-4.44
-6.64,5.52,1.02,-0.47,-0.41,-4.33
-7.49,6.05,0.32,-0.34,-0.22,-4.20
-8.40,6.72,-0.31,-0.22,-0.03,-4.01
-9.16,7.33,-0.90,-0.20,0.12,-3.72
-9.67,7.78,-1.12,-0.27,0.27,-3.36
-10.11,8.11,-0.55,-0.35,0.36,-2.94
-10.38,8.28,-0.34,-0.35,0.45,-2.53
-10.66,8.47,-0.24,-0.31,0.57,-2.15
-10.72,8.74,-0.18,-0.28,0.69,-1.78
-10.59,9.08,0.07,-0.29,0.75,-1.42
-10.28,9.49,0.15,-0.37,0.75,-1.06
-9.68,9.74,0.18,-0.50,0.78,-0.72
-8.98,9.80,0.59,-0.62,0.81,-0.42
-8.42,9.74,1.32,-0.67,0.76,-0.19
-8.07,9.68,1.66,-0.58,0.58,-0.03
-7.93,9.86,1.62,-0.45,0.37,0.06
-7.85,10.29,1.32,-0.39,0.15,0.11
-7.76,10.75,1.15,-0.43,-0.08,0.15
-7.54,10.99,1.07,-0.52,-0.31,0.19
-7.13,11.01,1.01,-0.63,-0.49,0.24
-6.51,10.89,1.06,-0.71,-0.57,0.29
-5.79,10.64,1.20,-0.72,-0.55,0.33
-5.20,10.35,1.41,-0.64,-0.43,0.33
-5.02,10.16,1.69,-0.49,-0.27,0.29
-5.32,10.12,1.92,-0.28,-0.10,0.23
-5.93,10.22,2.07,-0.07,0.01,0.19
-6.66,10.38,2.05,0.11,0.05,0.20
-7.34,10.56,1.98,0.22,0.03,0.26
-7.87,10.67,1.93,0.30,-0.01,0.36
-8.28,10.67,1.86,0.36,-0.04,0.47
-8.61,10.63,1.76,0.42,-0.07,0.61
-8.86,10.64,1.55,0.49,-0.08,0.76
-8.99,10.71,1.16,0.55,-0.07,0.94
-9.01,10.79,0.89,0.56,-0.06,1.14
-8.91,10.75,0.74,0.55,-0.06,1.37
-8.76,10.59,0.68,0.54,-0.03,1.60
-8.56,10.37,0.61,0.55,-0.01,1.81
-8.26,10.21,0.48,0.56,0.01,2.02
-7.81,10.02,0.27,0.55,0.04,2.22
-7.24,9.73,0.20,0.51,0.05,2.42
-6.56,9.35,0.08,0.47,0.05,2.58
-5.89,8.96,0.02,0.44,0.08,2.72
-5.27,8.60,0.04,0.43,0.11,2.84
-4.68,8.26,-0.06,0.43,0.15,2.94
-4.12,7.93,-0.01,0.42,0.18,3.04
-3.47,7.54,-0.14,0.40,0.20,3.14
-2.74,7.13,-0.26,0.36,0.26,3.22
-2.11,6.75,-0.27,0.31,0.34,3.31
-1.93,6.50,-0.43,0.24,0.47,3.53
-1.44,5.87,-0.18,0.17,0.62,3.77
-0.84,5.27,-0.05,0.10,0.70,3.90
-0.15,4.68,0.12,0.00,0.75,3.98
0.54,4.10,0.37,-0.07,0.82,4.01
1.14,3.55,0.48,-0.11,0.90,4.00
1.59,3.05,0.56,-0.14,0.97,3.97
1.96,2.62,0.67,-0.21,0.99,3.93
2.43,2.16,0.84,-0.30,0.97,3.90
3.05,1.66,1.02,-0.40,0.96,3.87
3.74,1.18,1.23,-0.47,0.98,3.81
4.38,0.84,1.41,-0.52,1.03,3.71
4.74,0.73,1.75,-0.56,1.06,3.59
4.87,0.71,2.26,-0.61,1.04,3.48
5.05,0.65,2.81,-0.66,0.96,3.42
5.54,0.47,3.39,-0.72,0.86,3.42
6.48,0.17,4.02,-0.73,0.75,3.44
7.82,-0.26,4.56,-0.72,0.64,3.44
9.36,-0.75,5.09,-0.68,0.55,3.37
10.88,-1.18,5.61,-0.59,0.50,3.22
12.23,-1.40,6.00,-0.46,0.48,2.99
13.36,-1.35,6.11,-0.30,0.50,2.71
14.27,-1.18,6.09,-0.16,0.53,2.40
15.00,-1.01,6.00,-0.03,0.56,2.07
15.53,-0.82,5.87,0.07,0.58,1.72
15.78,-0.61,5.76,0.17,0.60,1.37
15.69,-0.32,5.57,0.25,0.60,1.02
15.30,-0.01,5.29,0.30,0.59,0.70
14.75,0.23,5.09,0.32,0.55,0.41
14.03,0.36,5.04,0.31,0.43,0.13
13.30,0.44,4.94,0.26,0.26,-0.12
12.84,0.50,4.92,0.18,0.05,-0.33
12.82,0.61,4.83,0.12,-0.14,-0.53
12.98,0.73,4.66,0.07,-0.26,-0.75
12.99,0.85,4.47,0.04,-0.33,-1.00
12.75,0.95,4.35,0.03,-0.33,-1.23
12.34,1.12,4.25,0.04,-0.34,-1.44
11.84,1.36,4.24,0.03,-0.40,-1.63
11.31,1.64,4.22,0.00,-0.53,-1.80
10.81,1.88,4.16,-0.04,-0.71,-1.96
10.49,2.04,4.03,-0.08,-0.88,-2.09
10.31,2.20,3.84,-0.11,-1.04,-2.22
10.14,2.39,3.54,-0.13,-1.12,-2.36
9.87,2.58,3.19,-0.14,-1.13,-2.51
9.44,2.69,2.84,-0.13,-1.08,-2.65
8.87,2.77,2.54,-0.12,-0.99,-2.79
8.19,2.87,2.34,-0.12,-0.88,-2.91
7.42,3.04,2.30,-0.11,-0.80,-3.00
6.58,3.31,2.32,-0.11,-0.78,-3.07
5.78,3.65,2.40,-0.14,-0.84,-3.11
5.15,3.98,2.45,-0.17,-0.92,-3.11
4.71,4.24,2.44,-0.21,-1.02,-3.10
4.47,4.47,2.23,-0.24,-1.09,-3.10
4.41,4.72,2.03,-0.27,-1.08,-3.10
4.47,4.99,1.85,-0.27,-0.99,-3.13
4.45,5.21,1.75,-0.23,-0.82,-3.19
4.14,5.38,1.63,-0.17,-0.65,-3.28
3.49,5.58,1.56,-0.11,-0.52,-3.36
2.67,5.78,1.45,-0.08,-0.45,-3.41
1.77,6.02,1.31,-0.06,-0.44,-3.44
0.90,6.38,1.23,-0.08,-0.46,-3.41
0.16,6.81,1.17,-0.10,-0.49,-3.32
-0.43,7.25,1.02,-0.12,-0.50,-3.20
-0.94,7.58,0.90,-0.14,-0.49,-3.07
-1.38,7.75,0.78,-0.16,-0.46,-2.94
-1.81,7.86,0.67,-0.20,-0.42,-2.81
-2.15,8.01,0.64,-0.23,-0.39,-2.65
-2.31,8.22,0.58,-0.24,-0.35,-2.48
-2.30,8.42,0.47,-0.25,-0.29,-2.33
-2.35,8.54,0.60,-0.25,-0.24,-2.20
-2.56,8.62,0.65,-0.23,-0.18,-2.12
-2.95,8.77,0.65,-0.21,-0.11,-2.07
-3.40,9.04,0.59,-0.18,-0.05,-1.99
-3.75,9.37,0.42,-0.17,0.02,-1.89
-3.93,9.67,0.18,-0.18,0.06,-1.75
-3.97,9.90,-0.03,-0.22,0.11,-1.60
-3.96,10.07,0.00,-0.27,0.18,-1.47
-4.09,10.18,0.32,-0.29,0.24,-1.35
-4.36,10.26,0.55,-0.28,0.29,-1.26
-4.73,10.39,0.72,-0.26,0.31,-1.15
-5.07,10.53,0.82,-0.26,0.30,-1.02
-5.28,10.64,0.85,-0.28,0.26,-0.87
-5.30,10.70,0.91,-0.34,0.21,-0.71
-5.12,10.69,0.98,-0.41,0.19,-0.54
-4.80,10.65,1.13,-0.46,0.21,-0.39
-4.50,10.58,1.34,-0.46,0.26,-0.26
-4.35,10.50,1.58,-0.42,0.29,-0.17
-4.34,10.46,1.70,-0.36,0.28,-0.11
-4.44,10.50,1.76,-0.33,0.23,-0.06
aX,aY,aZ,gX,gY,gZ
11.71,0.52,4.62,0.25,-0.20,-1.30
11.42,0.56,4.58,0.26,-0.22,-1.48
11.10,0.59,4.58,0.29,-0.24,-1.65
10.66,0.70,4.48,0.33,-0.27,-1.82
10.05,0.93,4.26,0.36,-0.32,-1.98
9.38,1.20,4.05,0.36,-0.40,-2.10
8.83,1.45,3.86,0.35,-0.48,-2.17
8.58,1.59,3.72,0.33,-0.53,-2.22
8.55,1.71,3.68,0.32,-0.51,-2.26
8.56,1.92,3.67,0.34,-0.43,-2.32
8.42,2.19,3.68,0.39,-0.32,-2.39
8.06,2.44,3.75,0.43,-0.26,-2.47
7.63,2.65,3.83,0.46,-0.26,-2.54
7.25,2.86,3.96,0.48,-0.31,-2.60
6.91,3.12,3.98,0.50,-0.40,-2.66
6.61,3.41,3.88,0.53,-0.51,-2.73
6.40,3.66,3.66,0.55,-0.63,-2.80
6.28,3.80,3.44,0.55,-0.73,-2.88
6.34,3.83,3.28,0.56,-0.78,-2.97
6.52,3.84,3.15,0.61,-0.74,-3.09
6.55,3.86,3.09,0.70,-0.63,-3.24
6.28,3.88,2.82,0.79,-0.54,-3.43
5.52,4.01,2.45,0.86,-0.52,-3.66
4.42,4.26,2.06,0.90,-0.51,-3.85
3.24,4.62,1.74,0.93,-0.50,-3.93
2.16,5.00,1.50,0.93,-0.53,-3.91
1.31,5.35,1.20,0.93,-0.60,-3.83
0.62,5.67,0.69,0.91,-0.64,-3.74
0.10,5.97,0.09,0.88,-0.65,-3.66
-0.24,6.23,-0.52,0.82,-0.57,-3.58
-0.49,6.39,-0.74,0.78,-0.42,-3.50
-0.73,6.47,-0.95,0.76,-0.31,-3.44
-1.16,6.55,-1.11,0.75,-0.22,-3.40
-1.87,6.68,-1.22,0.73,-0.18,-3.37
-2.76,6.85,-1.45,0.72,-0.19,-3.34
-3.66,7.10,-1.68,0.70,-0.22,-3.29
-4.29,7.37,-1.69,0.71,-0.25,-3.20
-4.69,7.70,-2.07,0.71,-0.23,-3.10
-5.06,8.01,-2.42,0.67,-0.18,-2.98
-5.77,8.29,-2.66,0.57,-0.15,-2.85
-6.54,8.49,-2.90,0.45,-0.13,-2.67
-7.02,8.67,-3.13,0.30,-0.13,-2.47
-7.25,8.88,-3.15,0.15,-0.14,-2.25
-7.44,9.07,-3.18,0.03,-0.11,-2.05
-7.66,9.22,-3.12,-0.08,-0.08,-1.85
-7.83,9.38,-2.92,-0.18,-0.05,-1.65
-7.94,9.56,-2.62,-0.27,-0.05,-1.45
-8.08,9.72,-2.27,-0.39,-0.09,-1.26
-8.22,9.85,-1.98,-0.50,-0.19,-1.08
-8.29,10.03,-1.68,-0.60,-0.30,-0.91
-8.39,10.28,-1.36,-0.66,-0.37,-0.73
-8.33,10.40,-1.15,-0.69,-0.39,-0.52
-8.06,10.40,-0.96,-0.68,-0.37,-0.34
-7.76,10.35,-0.81,-0.64,-0.32,-0.19
-7.60,10.33,-0.63,-0.57,-0.27,-0.10
-7.59,10.35,-0.48,-0.50,-0.23,-0.04
-7.67,10.46,-0.39,-0.43,-0.19,0.00
-7.75,10.60,-0.29,-0.37,-0.17,0.07
-7.78,10.66,-0.23,-0.32,-0.15,0.16
-7.71,10.66,-0.18,-0.28,-0.13,0.27
-7.54,10.62,-0.09,-0.24,-0.10,0.39
-7.29,10.53,0.01,-0.19,-0.06,0.50
-7.00,10.42,-0.01,-0.14,-0.00,0.60
-6.74,10.33,-0.01,-0.10,0.06,0.68
-6.55,10.28,-0.06,-0.06,0.12,0.76
-6.46,10.20,-0.06,-0.04,0.17,0.83
-6.49,10.11,0.03,-0.01,0.20,0.91
-6.57,9.99,0.10,0.02,0.19,0.99
-6.58,9.87,0.06,0.03,0.15,1.08
-6.46,9.81,0.04,0.02,0.10,1.18
-6.20,9.72,0.03,0.00,0.06,1.29
-5.86,9.58,0.06,-0.01,0.04,1.38
-5.55,9.41,0.06,-0.00,0.04,1.44
-5.28,9.26,0.06,0.01,0.07,1.49
-5.02,9.17,0.08,0.03,0.11,1.54
-4.74,9.12,0.07,0.05,0.14,1.60
-4.43,9.07,-0.00,0.08,0.18,1.66
-4.15,9.00,-0.09,0.10,0.23,1.71
-3.93,8.91,-0.16,0.11,0.27,1.76
-3.80,8.81,-0.20,0.12,0.31,1.80
-3.74,8.75,-0.24,0.13,0.34,1.85
-3.69,8.67,-0.26,0.12,0.36,1.90
-3.60,8.57,-0.19,0.09,0.35,1.98
-3.34,8.43,-0.14,0.04,0.33,2.07
-2.95,8.23,-0.10,-0.00,0.32,2.16
-2.50,8.01,-0.08,-0.04,0.34,2.25
-2.07,7.77,-0.05,-0.05,0.39,2.32
-1.72,7.53,0.03,-0.06,0.44,2.36
-1.39,7.30,0.14,-0.08,0.48,2.38
-1.00,7.05,0.28,-0.12,0.49,2.41
-0.54,6.80,0.28,-0.15,0.53,2.46
-0.12,6.57,0.16,-0.17,0.62,2.54
0.30,6.38,-0.00,-0.18,0.74,2.58
0.49,6.37,-0.06,-0.19,0.84,2.57
0.49,6.44,-0.08,-0.24,0.89,2.56
0.48,6.45,0.04,-0.31,0.92,2.60
0.55,6.39,0.21,-0.37,0.93,2.66
0.75,6.27,0.45,-0.45,0.91,2.75
1.15,6.05,0.84,-0.54,0.86,2.86
1.71,5.76,1.24,-0.61,0.83,2.96
2.31,5.42,1.60,-0.65,0.82,3.03
2.77,5.20,1.78,-0.65,0.85,3.07
2.96,5.10,1.89,-0.65,0.89,3.11
3.01,4.97,1.98,-0.68,0.88,3.18
3.25,4.65,2.16,-0.75,0.82,3.29
3.83,4.12,2.46,-0.84,0.74,3.42
4.74,3.49,2.82,-0.90,0.69,3.53
5.77,2.89,3.21,-0.91,0.67,3.57
6.68,2.45,3.53,-0.89,0.69,3.55
7.41,2.09,3.89,-0.85,0.70,3.48
7.98,1.76,4.15,-0.81,0.69,3.39
8.51,1.42,4.42,-0.77,0.67,3.28
9.09,1.06,4.66,-0.72,0.63,3.17
9.78,0.73,4.79,-0.68,0.59,3.04
10.49,0.45,4.88,-0.63,0.58,2.88
11.08,0.23,5.00,-0.55,0.59,2.67
11.47,0.16,5.06,-0.48,0.60,2.43
11.71,0.08,5.14,-0.41,0.59,2.20
11.94,0.06,5.26,-0.37,0.56,1.97
12.21,0.07,5.34,-0.31,0.52,1.74
12.43,0.11,5.43,-0.24,0.48,1.50
12.67,0.17,5.51,-0.18,0.42,1.26
13.02,0.19,5.58,-0.13,0.36,1.03
13.39,0.23,5.67,-0.06,0.33,0.78
13.60,0.40,5.64,0.02,0.30,0.52
13.62,0.54,5.52,0.09,0.27,0.25
13.50,0.74,5.37,0.16,0.23,0.00
13.32,0.96,5.27,0.21,0.18,-0.23
13.05,1.19,5.15,0.26,0.14,-0.44
12.70,1.39,5.03,0.29,0.08,-0.63
12.29,1.56,4.90,0.32,0.01,-0.81
11.85,1.70,4.72,0.33,-0.07,-0.97
11.47,1.77,4.65,0.32,-0.14,-1.11
11.14,1.77,4.67,0.33,-0.18,-1.24
10.86,1.75,4.70,0.35,-0.21,-1.37
10.64,1.70,4.72,0.38,-0.24,-1.49
10.34,1.71,4.75,0.41,-0.29,-1.62
10.04,1.73,4.80,0.44,-0.35,-1.74
9.78,1.73,4.89,0.47,-0.45,-1.86
9.57,1.72,4.93,0.50,-0.55,-1.98
9.33,1.78,4.90,0.55,-0.67,-2.12
9.11,1.93,4.75,0.60,-0.77,-2.24
8.91,2.14,4.60,0.65,-0.85,-2.36
8.78,2.34,4.40,0.70,-0.92,-2.48
8.68,2.48,4.21,0.76,-0.95,-2.60
8.50,2.60,4.04,0.84,-0.93,-2.74
8.20,2.77,3.80,0.92,-0.88,-2.87
7.73,3.02,3.56,1.01,-0.83,-3.00
7.18,3.27,3.28,1.09,-0.78,-3.11
6.65,3.45,2.95,1.15,-0.73,-3.19
6.08,3.57,2.70,1.21,-0.70,-3.28
5.47,3.70,2.23,1.26,-0.68,-3.36
4.75,3.95,1.73,1.28,-0.69,-3.45
4.03,4.30,1.25,1.24,-0.73,-3.50
3.46,4.61,0.74,1.16,-0.73,-3.51
3.06,4.87,0.38,1.08,-0.66,-3.46
2.81,5.06,0.10,1.01,-0.55,-3.37
2.51,5.21,-0.01,0.98,-0.43,-3.29
2.06,5.39,-0.15,0.97,-0.42,-3.23
1.40,5.65,-0.40,0.93,-0.45,-3.21
0.61,5.97,-0.69,0.87,-0.54,-3.19
-0.19,6.35,-0.90,0.77,-0.63,-3.14
-0.83,6.72,-1.08,0.66,-0.72,-3.06
-1.24,7.04,-1.26,0.55,-0.78,-2.95
-1.41,7.24,-1.45,0.44,-0.80,-2.84
-1.40,7.32,-1.76,0.35,-0.74,-2.76
-1.36,7.29,-1.66,0.27,-0.62,-2.70
-1.41,7.17,-1.40,0.24,-0.45,-2.68
-1.74,7.07,-1.35,0.26,-0.26,-2.68
-2.48,7.10,-1.61,0.29,-0.05,-2.68
-3.67,7.35,-1.90,0.28,0.05,-2.64
-4.92,7.80,-2.46,0.20,0.03,-2.55
-5.96,8.38,-2.83,0.06,-0.05,-2.38
-6.65,8.94,-3.04,-0.10,-0.18,-2.17
-6.97,9.34,-3.08,-0.27,-0.37,-1.94
-6.97,9.55,-3.19,-0.44,-0.58,-1.75
-7.00,9.66,-3.17,-0.59,-0.76,-1.59
-6.95,9.67,-3.08,-0.75,-0.89,-1.43
-6.74,9.67,-2.69,-0.88,-0.93,-1.26
-6.39,9.73,-2.01,-0.92,-0.85,-1.10
-5.98,9.83,-1.19,-0.87,-0.69,-0.97
-5.68,9.92,-0.38,-0.74,-0.46,-0.88
-5.69,10.00,0.23,-0.56,-0.23,-0.83
-6.00,10.13,0.55,-0.36,-0.03,-0.80
-6.45,10.33,0.51,-0.16,0.10,-0.74
-6.88,10.60,0.20,-0.00,0.16,-0.65
-7.13,10.95,-0.27,0.10,0.17,-0.53
-7.18,11.31,-0.71,0.13,0.14,-0.38
-7.07,11.54,-1.03,0.10,0.08,-0.23
-6.84,11.55,-1.24,0.04,0.02,-0.10
-6.60,11.42,-1.30,-0.04,-0.04,0.01
-6.39,11.22,-1.26,-0.09,-0.07,0.10
-6.25,11.04,-1.11,-0.12,-0.08,0.17
-6.17,10.90,-0.78,-0.14,-0.08,0.24
-6.11,10.78,-0.54,-0.13,-0.07,0.32
-6.02,10.66,-0.35,-0.11,-0.05,0.40
-5.93,10.51,-0.25,-0.08,-0.04,0.49
-5.85,10.37,-0.18,-0.04,-0.03,0.57
-5.69,10.28,-0.26,-0.00,-0.02,0.64
-5.48,10.23,-0.39,0.02,0.00,0.70
aX,aY,aZ,gX,gY,gZ
8.00,2.47,4.29,0.58,-0.58,-2.29
7.69,2.69,4.15,0.61,-0.62,-2.37
7.45,2.93,4.02,0.63,-0.69,-2.44
7.37,3.11,3.92,0.63,-0.75,-2.52
7.32,3.18,3.89,0.65,-0.80,-2.62
7.19,3.17,3.79,0.68,-0.82,-2.74
6.91,3.17,3.67,0.73,-0.83,-2.87
6.50,3.28,3.50,0.77,-0.83,-3.00
6.08,3.47,3.22,0.81,-0.82,-3.11
5.68,3.70,2.81,0.84,-0.78,-3.23
5.25,3.92,2.39,0.85,-0.71,-3.35
4.74,4.14,2.14,0.84,-0.63,-3.46
4.18,4.36,1.91,0.86,-0.52,-3.53
3.55,4.53,1.65,0.88,-0.40,-3.56
2.75,4.68,1.39,0.91,-0.35,-3.58
1.85,4.87,1.03,0.91,-0.39,-3.59
0.89,5.14,0.73,0.88,-0.46,-3.59
-0.04,5.50,0.42,0.84,-0.54,-3.57
-0.77,5.86,0.06,0.78,-0.58,-3.51
-1.29,6.17,-0.16,0.72,-0.59,-3.43
-1.73,6.39,-0.23,0.67,-0.62,-3.33
-2.19,6.54,-0.41,0.62,-0.64,-3.25
-2.73,6.67,-0.79,0.57,-0.65,-3.18
-3.35,6.88,-1.24,0.51,-0.63,-3.11
-3.90,7.23,-1.76,0.43,-0.58,-3.01
-4.32,7.69,-2.26,0.34,-0.46,-2.88
-4.62,8.15,-2.67,0.24,-0.33,-2.75
-4.97,8.54,-2.76,0.12,-0.22,-2.62
-5.40,8.84,-2.69,0.02,-0.10,-2.51
-5.96,9.05,-2.26,-0.06,-0.06,-2.41
-6.48,9.18,-1.81,-0.11,-0.09,-2.29
-6.80,9.27,-1.36,-0.14,-0.19,-2.16
-7.04,9.45,-1.02,-0.17,-0.29,-2.00
-7.24,9.70,-0.83,-0.17,-0.35,-1.82
-7.45,9.96,-0.90,-0.13,-0.36,-1.62
-7.66,10.23,-1.17,-0.11,-0.33,-1.40
-7.75,10.49,-1.39,-0.12,-0.30,-1.18
-7.66,10.73,-1.46,-0.17,-0.26,-0.96
-7.40,10.87,-1.42,-0.22,-0.21,-0.75
-7.05,10.89,-1.38,-0.26,-0.16,-0.57
-6.77,10.88,-1.26,-0.30,-0.12,-0.43
-6.61,10.87,-1.10,-0.31,-0.08,-0.34
-6.56,10.91,-0.94,-0.31,-0.05,-0.26
-6.58,10.99,-0.84,-0.30,-0.03,-0.19
-6.65,11.09,-0.74,-0.29,-0.02,-0.12
-6.68,11.16,-0.68,-0.30,-0.01,-0.04
-6.69,11.21,-0.63,-0.30,0.00,0.05
-6.65,11.26,-0.56,-0.30,0.03,0.14
-6.62,11.22,-0.44,-0.29,0.06,0.24
-6.64,11.16,-0.30,-0.26,0.10,0.33
-6.71,11.11,-0.16,-0.23,0.13,0.43
-6.74,11.08,-0.08,-0.19,0.15,0.53
-6.75,11.05,-0.00,-0.15,0.15,0.64
-6.74,11.02,-0.04,-0.11,0.14,0.75
-6.73,11.00,-0.13,-0.09,0.13,0.85
-6.67,10.99,-0.23,-0.09,0.11,0.97
-6.56,10.94,-0.27,-0.10,0.10,1.09
-6.40,10.81,-0.13,-0.13,0.09,1.21
-6.18,10.64,0.00,-0.14,0.10,1.33
-5.90,10.50,0.11,-0.13,0.13,1.45
-5.60,10.38,0.11,-0.10,0.16,1.54
-5.30,10.25,0.07,-0.07,0.21,1.63
-5.03,10.13,0.05,-0.05,0.26,1.70
-4.81,10.02,0.11,-0.03,0.28,1.75
-4.65,9.90,0.13,-0.01,0.28,1.80
-4.51,9.75,0.17,0.01,0.25,1.85
-4.33,9.53,0.24,0.01,0.22,1.91
-4.08,9.24,0.34,-0.00,0.18,1.97
-3.71,8.93,0.39,-0.01,0.18,2.03
-3.24,8.65,0.52,0.01,0.22,2.09
-2.70,8.44,0.57,0.06,0.31,2.13
-2.18,8.25,0.56,0.15,0.45,2.14
-1.82,8.10,0.42,0.26,0.62,2.12
-1.65,7.94,0.23,0.37,0.77,2.06
-1.62,7.82,-0.02,0.43,0.89,2.01
-1.61,7.72,-0.25,0.44,0.97,1.98
-1.52,7.56,-0.36,0.41,1.01,2.01
-1.28,7.30,-0.42,0.36,1.04,2.05
-0.95,7.03,-0.45,0.30,1.07,2.11
-0.56,6.80,-0.46,0.23,1.10,2.16
-0.21,6.68,-0.41,0.15,1.16,2.23
0.03,6.64,-0.39,0.01,1.19,2.35
0.47,6.46,-0.16,-0.15,1.19,2.46
0.95,6.21,0.18,-0.26,1.19,2.53
1.38,5.94,0.43,-0.35,1.18,2.56
1.70,5.74,0.70,-0.44,1.14,2.58
2.01,5.54,1.02,-0.53,1.08,2.61
2.45,5.24,1.36,-0.61,1.00,2.63
3.03,4.89,1.57,-0.68,0.94,2.63
3.70,4.60,1.74,-0.72,0.92,2.60
4.35,4.40,1.83,-0.73,0.95,2.52
4.77,4.27,1.98,-0.73,1.00,2.42
4.98,4.19,2.06,-0.73,1.05,2.32
5.00,4.12,2.20,-0.75,1.11,2.23
4.84,4.09,2.35,-0.75,1.19,2.17
4.61,4.13,2.43,-0.76,1.24,2.14
4.48,4.13,2.64,-0.82,1.22,2.14
4.50,4.04,2.97,-0.89,1.13,2.16
4.77,3.90,3.28,-0.97,1.03,2.20
5.22,3.76,3.60,-1.03,0.96,2.22
5.60,3.73,3.96,-1.05,0.94,2.23
5.90,3.74,4.38,-1.06,0.92,2.24
6.21,3.67,4.92,-1.07,0.87,2.28
6.65,3.44,5.47,-1.08,0.79,2.33
7.30,3.08,6.05,-1.08,0.69,2.36
8.10,2.75,6.57,-1.06,0.59,2.37
8.97,2.41,6.95,-1.00,0.48,2.32
9.80,2.09,7.24,-0.92,0.41,2.23
10.51,1.81,7.35,-0.79,0.37,2.11
11.03,1.63,7.27,-0.64,0.38,1.95
11.32,1.63,7.01,-0.48,0.42,1.78
11.37,1.75,6.80,-0.36,0.44,1.61
11.31,1.80,6.66,-0.29,0.41,1.46
11.30,1.71,6.62,-0.26,0.33,1.32
11.36,1.52,6.67,-0.23,0.23,1.18
11.54,1.34,6.65,-0.18,0.15,1.04
11.79,1.22,6.64,-0.12,0.08,0.88
12.06,1.15,6.60,-0.06,0.01,0.70
12.30,1.12,6.51,0.00,-0.06,0.50
12.50,1.08,6.34,0.07,-0.08,0.28
12.56,1.06,6.16,0.15,-0.09,0.05
12.43,1.06,6.06,0.22,-0.10,-0.19
12.16,1.07,5.85,0.29,-0.14,-0.41
11.78,1.12,5.71,0.33,-0.21,-0.63
11.43,1.19,5.59,0.35,-0.32,-0.82
11.19,1.29,5.46,0.36,-0.43,-1.00
11.03,1.36,5.37,0.38,-0.52,-1.18
10.81,1.41,5.28,0.41,-0.57,-1.36
10.51,1.52,5.19,0.45,-0.57,-1.52
10.15,1.68,5.07,0.50,-0.55,-1.66
9.76,1.86,4.98,0.55,-0.51,-1.78
9.32,2.07,4.92,0.60,-0.49,-1.87
8.89,2.24,4.90,0.63,-0.48,-1.95
8.49,2.36,4.98,0.66,-0.50,-2.02
8.16,2.47,5.18,0.68,-0.55,-2.08
7.89,2.61,5.36,0.73,-0.66,-2.14
7.55,2.84,5.25,0.80,-0.80,-2.22
7.19,3.13,4.96,0.83,-0.96,-2.29
6.97,3.34,4.69,0.83,-1.16,-2.34
6.98,3.35,4.47,0.81,-1.34,-2.41
7.13,3.19,4.35,0.80,-1.47,-2.50
7.26,3.02,4.18,0.83,-1.54,-2.64
7.26,2.96,3.78,0.90,-1.54,-2.81
7.07,2.97,3.20,0.96,-1.49,-3.00
6.73,2.98,2.46,0.99,-1.43,-3.22
6.16,3.07,1.91,0.96,-1.38,-3.45
5.34,3.27,1.39,0.92,-1.33,-3.65
4.33,3.57,0.88,0.92,-1.23,-3.78
3.29,4.02,0.34,0.92,-1.12,-3.83
2.33,4.55,-0.11,0.88,-1.01,-3.80
1.64,4.52,1.75,1.02,-0.91,-3.72
1.57,4.49,0.74,1.47,-0.53,-3.65
0.91,4.86,-0.13,1.56,-0.33,-3.51
-0.15,5.70,-0.80,1.45,-0.23,-3.35
-1.00,6.57,-1.27,1.21,-0.26,-3.17
-1.12,6.97,-1.73,0.91,-0.33,-2.99
-0.85,7.02,-2.07,0.62,-0.29,-2.85
-0.77,7.11,-2.17,0.38,-0.13,-2.75
-1.32,7.41,-2.22,0.18,0.02,-2.68
-2.39,7.87,-2.32,-0.01,0.05,-2.61
-3.62,8.33,-2.14,-0.22,-0.11,-2.54
-4.59,8.75,-1.87,-0.41,-0.44,-2.44
-4.71,9.07,-1.72,-0.57,-0.84,-2.39
-4.82,9.51,-1.64,-0.70,-1.14,-2.36
-4.93,9.91,-1.60,-0.78,-1.28,-2.26
-4.94,10.17,-1.66,-0.80,-1.22,-2.10
-4.98,10.31,-1.64,-0.76,-1.04,-1.91
-5.15,10.36,-1.53,-0.67,-0.84,-1.74
-5.43,10.37,-1.46,-0.58,-0.66,-1.60
-5.69,10.42,-1.49,-0.50,-0.53,-1.48
-5.80,10.52,-1.49,-0.47,-0.44,-1.34
-5.72,10.62,-1.26,-0.48,-0.40,-1.21
-5.63,10.64,-0.79,-0.49,-0.38,-1.09
-5.65,10.58,-0.26,-0.46,-0.34,-0.98
-5.79,10.49,0.13,-0.38,-0.30,-0.87
-6.02,10.49,0.28,-0.26,-0.26,-0.76
-6.17,10.60,0.22,-0.14,-0.22,-0.65
-6.20,10.75,0.00,-0.04,-0.18,-0.54
-6.20,10.92,-0.12,0.03,-0.16,-0.44
-6.26,11.03,-0.14,0.09,-0.16,-0.36
-6.40,11.05,-0.06,0.14,-0.18,-0.29
-6.57,11.03,-0.03,0.19,-0.22,-0.21
-6.68,11.01,-0.03,0.24,-0.26,-0.12
-6.65,11.06,-0.16,0.29,-0.29,-0.01
-6.48,11.14,-0.44,0.33,-0.31,0.11
-6.27,11.22,-0.76,0.37,-0.29,0.22
-6.09,11.24,-1.02,0.38,-0.24,0.32
-6.02,11.20,-1.17,0.39,-0.18,0.39
-6.08,11.10,-1.14,0.40,-0.13,0.46
-6.20,11.00,-1.11,0.40,-0.12,0.53
-6.28,10.92,-1.21,0.39,-0.11,0.61
-6.31,10.82,-1.41,0.36,-0.12,0.71
-6.24,10.72,-1.60,0.32,-0.12,0.82
-6.05,10.62,-1.72,0.27,-0.11,0.94
-5.79,10.51,-1.75,0.24,-0.07,1.04
-5.54,10.39,-1.70,0.22,-0.01,1.13
-5.36,10.29,-1.58,0.23,0.05,1.20
-5.22,10.21,-1.45,0.25,0.11,1.27
-5.09,10.12,-1.45,0.28,0.17,1.32
-4.96,10.02,-1.51,0.30,0.24,1.38
aX,aY,aZ,gX,gY,gZ
10.81,-0.01,8.03,-1.14,0.24,2.50
11.75,-0.40,8.23,-1.00,0.21,2.37
12.57,-0.66,8.43,-0.80,0.25,2.17
13.07,-0.73,8.34,-0.57,0.31,1.93
13.24,-0.67,8.03,-0.36,0.38,1.69
13.21,-0.56,7.62,-0.21,0.43,1.46
13.02,-0.41,7.32,-0.11,0.43,1.25
12.83,-0.35,7.17,-0.07,0.37,1.05
12.70,-0.40,7.07,-0.05,0.27,0.85
12.67,-0.54,6.88,-0.04,0.15,0.64
12.84,-0.72,6.54,-0.03,0.05,0.42
13.11,-0.86,6.23,-0.02,0.01,0.16
13.24,-0.93,6.00,0.00,0.02,-0.13
13.10,-0.93,5.85,0.04,0.07,-0.44
12.75,-0.90,5.81,0.09,0.11,-0.72
12.33,-0.88,5.89,0.11,0.11,-0.96
12.05,-0.87,6.04,0.11,0.06,-1.18
11.98,-0.82,6.26,0.12,-0.02,-1.39
11.98,-0.75,6.48,0.15,-0.12,-1.61
11.95,-0.61,6.62,0.20,-0.21,-1.82
11.88,-0.46,6.58,0.26,-0.27,-2.04
11.85,-0.27,6.47,0.33,-0.28,-2.24
11.86,-0.08,6.38,0.41,-0.23,-2.45
11.65,0.09,6.40,0.54,-0.12,-2.67
11.10,0.21,6.43,0.68,-0.01,-2.90
10.32,0.34,6.30,0.83,0.09,-3.10
9.50,0.51,6.10,0.96,0.18,-3.25
8.82,0.69,5.86,1.09,0.29,-3.37
8.26,0.84,5.67,1.23,0.42,-3.46
7.90,0.81,5.65,1.43,0.55,-3.52
7.51,0.69,5.52,1.66,0.69,-3.62
6.87,0.65,5.14,1.89,0.81,-3.72
6.08,0.74,4.67,2.08,0.92,-3.80
5.27,0.86,4.19,2.23,1.00,-3.86
4.50,1.00,3.52,2.36,1.07,-3.91
3.73,1.14,2.69,2.44,1.12,-3.95
2.91,1.31,1.76,2.46,1.15,-3.99
2.01,1.58,0.84,2.43,1.15,-4.04
1.08,2.03,0.01,2.30,1.07,-4.08
0.21,2.52,-0.55,2.09,0.93,-4.09
-0.54,2.93,-0.89,1.82,0.74,-4.07
-1.18,3.24,-1.28,1.52,0.55,-4.01
-1.62,3.44,-1.57,1.19,0.38,-3.92
-1.83,3.52,-1.81,0.86,0.24,-3.82
-1.89,3.43,-1.35,0.59,0.14,-3.75
-1.34,2.60,0.71,0.76,0.01,-3.81
-1.28,2.34,-0.52,1.01,0.15,-3.99
-2.01,2.25,-0.99,1.02,0.17,-4.13
-3.33,2.34,-1.30,0.98,0.17,-4.22
-4.72,2.41,-1.51,0.85,-0.02,-4.25
-5.67,2.30,-1.58,0.68,-0.27,-4.25
-5.96,2.08,-1.62,0.53,-0.47,-4.26
-5.86,1.83,-1.60,0.43,-0.50,-4.29
-5.94,1.62,-1.56,0.46,-0.28,-4.34
-6.61,1.35,-1.58,0.61,0.03,-4.38
-7.81,0.97,-1.81,0.83,0.34,-4.35
-9.24,0.53,-1.99,1.08,0.61,-4.25
-10.85,0.32,-2.28,1.31,0.78,-4.07
-12.60,0.63,-2.58,1.51,0.86,-3.80
-14.03,1.45,-3.07,1.67,0.82,-3.45
-14.75,2.52,-3.56,1.80,0.77,-3.04
-14.59,3.45,-4.01,1.91,0.76,-2.63
-14.10,4.07,-4.48,2.03,0.88,-2.30
-13.76,4.55,-4.76,2.14,1.08,-2.03
-13.04,4.73,-5.05,2.14,1.26,-1.80
-13.92,5.54,-5.58,2.06,1.49,-1.57
-15.23,6.54,-5.92,1.93,1.64,-1.18
-15.57,7.17,-6.52,1.75,1.59,-0.66
-15.00,7.50,-7.30,1.57,1.50,-0.13
-14.46,7.93,-8.00,1.43,1.40,0.32
-14.33,8.44,-8.57,1.28,1.24,0.69
-14.52,8.77,-8.98,1.09,1.02,0.92
-14.80,8.86,-9.42,0.86,0.78,1.00
-14.67,8.59,-9.87,0.63,0.57,0.95
-14.21,8.06,-10.25,0.38,0.43,0.78
-13.84,7.45,-10.49,0.13,0.34,0.60
-13.91,6.94,-10.59,-0.12,0.29,0.51
-14.28,6.63,-10.54,-0.38,0.25,0.57
-14.45,6.38,-10.23,-0.63,0.20,0.78
-14.10,6.11,-9.80,-0.87,0.16,1.05
-13.41,5.82,-9.34,-1.07,0.17,1.28
-12.68,5.54,-8.91,-1.22,0.24,1.44
-12.17,5.32,-8.52,-1.30,0.39,1.57
-11.92,5.24,-8.12,-1.35,0.57,1.67
-11.88,5.26,-7.71,-1.38,0.71,1.79
-11.93,5.33,-7.40,-1.40,0.81,1.93
-11.85,5.32,-7.11,-1.43,0.87,2.11
-11.48,5.20,-6.86,-1.47,0.89,2.31
-10.90,5.06,-6.62,-1.53,0.91,2.47
-10.35,5.04,-6.34,-1.60,0.91,2.60
-9.97,5.13,-6.13,-1.69,0.88,2.71
-9.62,5.18,-5.88,-1.79,0.83,2.82
-9.15,5.13,-5.67,-1.90,0.73,2.92
-8.59,4.96,-5.54,-2.00,0.62,2.99
-8.00,4.74,-5.37,-2.07,0.54,3.03
-7.36,4.54,-5.18,-2.11,0.49,3.04
-6.78,4.45,-4.94,-2.14,0.44,3.03
-6.37,4.45,-4.70,-2.17,0.38,3.04
-6.06,4.45,-4.42,-2.22,0.30,3.07
-5.59,4.31,-4.12,-2.26,0.21,3.11
-4.90,4.12,-3.82,-2.33,0.12,3.15
-4.00,4.04,-3.38,-2.39,0.05,3.16
-3.00,4.10,-2.85,-2.39,0.03,3.15
-1.46,3.67,-2.43,-2.36,0.02,3.03
-0.02,3.33,-1.72,-2.23,0.05,2.73
0.72,3.37,-1.20,-1.95,0.17,2.35
0.70,3.44,-1.20,-1.65,0.30,2.03
0.47,3.08,-1.22,-1.47,0.32,1.81
-0.27,3.36,-1.96,-1.44,0.24,1.73
-0.85,3.61,-3.29,-1.68,0.33,1.96
-0.87,3.39,-2.98,-2.10,0.37,2.12
-0.53,2.98,-2.00,-2.51,0.28,2.21
0.05,2.59,-0.76,-2.83,0.17,2.25
0.53,2.29,1.20,-3.00,-0.07,2.23
0.77,2.15,2.83,-2.96,-0.37,2.22
0.98,2.02,3.57,-2.84,-0.63,2.24
1.33,1.99,3.76,-2.79,-0.86,2.25
1.82,1.93,4.00,-2.79,-1.11,2.23
2.22,1.87,4.03,-2.85,-1.42,2.15
2.71,1.84,3.96,-2.94,-1.70,2.11
3.52,1.77,4.06,-3.06,-1.92,2.10
4.72,1.53,4.27,-3.20,-2.05,2.07
5.93,1.26,5.08,-3.31,-2.12,2.00
6.92,0.97,6.20,-3.31,-2.07,1.95
7.58,0.56,7.37,-3.15,-1.86,1.91
7.90,0.10,8.60,-2.89,-1.64,1.87
8.03,-0.29,9.47,-2.53,-1.45,1.83
8.40,-0.55,9.58,-2.15,-1.26,1.85
9.15,-0.71,9.30,-1.82,-1.08,1.87
10.10,-0.76,8.94,-1.55,-0.87,1.85
10.92,-0.74,8.71,-1.30,-0.58,1.77
11.27,-0.51,8.57,-1.07,-0.24,1.64
11.06,-0.10,8.75,-0.88,0.08,1.50
10.41,0.35,8.94,-0.71,0.29,1.40
9.71,0.83,9.00,-0.63,0.35,1.36
9.28,1.13,9.33,-0.65,0.22,1.38
9.31,1.05,9.74,-0.72,-0.03,1.40
9.82,0.63,10.04,-0.77,-0.30,1.40
10.72,0.16,10.03,-0.75,-0.46,1.35
11.79,-0.33,9.82,-0.65,-0.47,1.24
12.71,-0.69,9.53,-0.49,-0.34,1.05
13.23,-0.97,9.47,-0.31,-0.17,0.80
13.33,-1.24,9.56,-0.13,-0.03,0.51
13.28,-1.44,9.60,0.01,0.04,0.22
13.38,-1.60,9.45,0.12,0.06,-0.06
13.69,-1.83,9.13,0.21,0.09,-0.37
13.92,-2.12,8.76,0.33,0.15,-0.71
13.84,-2.40,8.36,0.49,0.27,-1.08
13.37,-2.58,7.99,0.68,0.41,-1.43
12.61,-2.57,7.53,0.89,0.55,-1.76
11.63,-2.42,7.08,1.06,0.66,-2.04
10.58,-2.14,6.74,1.18,0.67,-2.28
9.66,-1.82,6.49,1.25,0.60,-2.46
8.94,-1.54,6.35,1.30,0.47,-2.61
8.45,-1.24,6.24,1.34,0.31,-2.75
8.01,-0.96,6.27,1.38,0.14,-2.88
7.52,-0.67,6.40,1.41,-0.05,-3.02
6.99,-0.40,6.51,1.43,-0.25,-3.15
6.52,-0.20,6.53,1.45,-0.45,-3.26
6.26,-0.09,6.25,1.46,-0.61,-3.38
6.09,-0.04,5.87,1.48,-0.67,-3.51
5.85,0.06,5.26,1.55,-0.60,-3.66
5.45,0.20,4.61,1.65,-0.41,-3.82
4.83,0.46,3.98,1.77,-0.17,-3.97
3.99,0.86,3.40,1.88,0.09,-4.10
2.97,1.35,2.69,1.96,0.35,-4.20
1.83,1.87,2.24,1.99,0.55,-4.25
0.61,2.36,1.64,2.00,0.61,-4.26
-0.67,2.98,0.77,1.93,0.57,-4.22
-1.78,3.82,-0.08,1.73,0.42,-4.11
-2.51,4.64,-0.73,1.41,0.19,-3.94
-2.71,5.21,-1.08,1.01,-0.05,-3.74
-2.40,5.40,-1.59,0.60,-0.16,-3.56
-1.82,5.24,-1.98,0.18,-0.05,-3.39
-1.28,4.65,-1.18,-0.14,0.27,-3.28
-0.31,3.36,0.11,0.11,0.95,-3.33
-0.49,2.67,-0.44,0.44,1.77,-3.49
-1.64,2.37,-0.20,0.60,2.24,-3.62
-3.84,2.57,0.82,0.71,2.18,-3.72
-6.29,3.00,1.01,0.70,1.47,-3.78
-8.19,3.26,0.63,0.61,0.57,-3.84
-9.40,3.70,-0.53,0.45,-0.16,-3.88
-9.64,4.21,-1.89,0.12,-0.62,-3.79
-8.72,4.15,-1.64,-0.19,-0.69,-3.60
-7.35,3.26,-0.34,0.02,-0.29,-3.51
-7.71,2.69,-0.38,0.28,0.08,-3.52
-9.58,2.64,-0.20,0.48,0.34,-3.47
-11.44,3.18,-0.28,0.61,0.46,-3.33
-12.31,3.94,-0.60,0.63,0.48,-3.11
-12.21,4.47,-0.83,0.59,0.50,-2.88
-11.89,4.63,-1.14,0.60,0.63,-2.67
-11.97,4.65,-1.12,0.68,0.83,-2.48
-12.55,4.74,-1.29,0.78,1.00,-2.26
-13.15,4.99,-1.50,0.85,1.11,-1.99
-13.45,5.38,-1.57,0.88,1.17,-1.70
-13.77,5.88,-1.75,0.89,1.19,-1.39
-13.70,6.24,-2.01,0.83,1.16,-1.06
-13.27,6.33,-1.99,0.75,1.12,-0.78
-12.81,6.22,-1.96,0.70,1.10,-0.59
-12.69,6.18,-2.01,0.67,1.10,-0.48
aX,aY,aZ,gX,gY,gZ
12.00,-0.19,4.60,-0.11,-1.18,-2.22
11.70,-0.28,4.50,-0.06,-1.17,-2.51
11.24,-0.36,4.23,0.00,-1.11,-2.79
10.54,-0.41,3.89,0.08,-1.00,-3.08
9.61,-0.29,3.32,0.17,-0.88,-3.34
8.63,-0.09,2.61,0.23,-0.73,-3.55
7.64,0.15,2.09,0.25,-0.59,-3.73
6.63,0.39,1.52,0.24,-0.49,-3.89
5.56,0.63,1.04,0.19,-0.43,-4.03
4.44,0.90,0.58,0.11,-0.38,-4.12
3.38,1.21,0.12,0.01,-0.32,-4.14
2.51,1.57,-0.30,-0.13,-0.21,-4.10
1.92,1.91,-0.56,-0.28,0.00,-4.00
1.61,1.93,0.65,-0.30,0.27,-3.88
1.26,1.87,0.89,-0.11,0.60,-3.83
0.46,2.22,0.65,-0.02,0.83,-3.82
-0.46,2.86,1.15,-0.02,0.93,-3.81
-1.26,3.64,1.36,-0.05,0.93,-3.80
-2.05,4.40,1.75,-0.07,0.89,-3.78
-2.94,5.07,2.03,-0.05,0.86,-3.77
-4.09,5.74,2.17,0.06,0.80,-3.77
-5.34,6.38,1.64,0.25,0.76,-3.77
-6.63,7.13,0.69,0.49,0.81,-3.79
-8.01,8.09,-0.51,0.72,0.93,-3.79
-9.63,9.15,-0.96,0.90,1.09,-3.68
-10.69,9.90,-0.90,1.24,1.38,-3.37
-11.11,10.75,-1.19,1.48,1.65,-2.93
-11.54,11.82,-1.64,1.42,1.66,-2.40
-12.27,12.87,-2.11,1.14,1.45,-1.84
-12.96,13.44,-2.69,0.76,1.10,-1.25
-13.22,13.35,-3.58,0.36,0.77,-0.66
-12.90,12.84,-4.43,-0.03,0.54,-0.11
-12.20,12.28,-5.11,-0.41,0.47,0.39
-11.44,11.89,-5.31,-0.81,0.55,0.84
-10.98,11.94,-4.95,-1.23,0.67,1.33
-10.20,11.50,-4.31,-1.68,0.74,1.92
-9.02,10.68,-3.58,-2.11,0.72,2.46
-7.64,9.66,-2.82,-2.50,0.63,2.93
-6.30,8.71,-1.79,-2.83,0.50,3.33
-5.05,7.90,-0.58,-3.11,0.26,3.67
-3.74,7.04,0.88,-3.29,-0.09,3.94
-2.50,6.28,2.05,-3.40,-0.49,4.15
-1.17,5.48,3.11,-3.45,-0.87,4.31
0.49,4.57,3.98,-3.45,-1.22,4.42
2.52,3.67,4.92,-3.38,-1.55,4.41
5.10,2.81,5.83,-3.26,-1.88,4.30
8.05,2.00,6.71,-3.07,-2.15,4.05
10.41,1.46,7.80,-2.75,-2.24,3.63
12.08,1.17,8.43,-2.32,-2.26,3.15
13.48,0.78,8.84,-1.85,-2.26,2.63
14.90,0.29,9.11,-1.28,-2.12,2.10
15.87,-0.07,9.15,-0.68,-1.78,1.52
16.87,-0.27,8.67,-0.17,-1.45,0.86
16.97,-0.18,7.93,0.26,-1.04,0.08
15.58,0.16,7.17,0.64,-0.60,-0.75
13.65,0.65,6.40,0.93,-0.25,-1.53
11.88,1.19,5.75,1.13,0.00,-2.19
10.19,1.76,5.24,1.28,0.19,-2.73
8.51,2.33,4.73,1.38,0.29,-3.15
6.92,2.94,4.07,1.45,0.29,-3.46
5.59,3.66,3.36,1.47,0.25,-3.66
4.61,4.42,2.75,1.45,0.17,-3.75
3.84,5.18,2.23,1.39,0.09,-3.76
3.09,5.92,1.98,1.30,-0.01,-3.71
2.22,6.63,1.89,1.17,-0.10,-3.61
1.20,7.30,1.82,1.00,-0.19,-3.47
0.03,7.98,1.60,0.81,-0.24,-3.29
-1.22,8.71,1.12,0.63,-0.23,-3.08
-2.55,9.53,0.71,0.47,-0.11,-2.83
-3.95,10.39,0.38,0.36,0.12,-2.53
-5.26,11.13,0.22,0.26,0.39,-2.16
-6.11,11.46,0.42,0.17,0.64,-1.73
-6.76,11.51,0.71,0.07,0.84,-1.25
-7.51,11.57,0.94,-0.07,0.93,-0.70
-8.02,11.56,1.16,-0.26,0.88,-0.10
-8.09,11.44,1.29,-0.47,0.73,0.50
-7.83,11.15,1.40,-0.69,0.53,1.06
-7.26,10.71,1.56,-0.88,0.35,1.58
-6.35,10.11,1.76,-1.03,0.25,2.05
-5.12,9.40,2.02,-1.14,0.22,2.45
-3.82,8.66,2.34,-1.21,0.26,2.76
-2.55,7.94,2.59,-1.23,0.38,3.00
-1.31,7.24,2.86,-1.23,0.54,3.18
-0.25,6.66,3.06,-1.19,0.77,3.30
0.66,6.18,3.23,-1.14,1.00,3.37
1.36,5.81,3.41,-1.10,1.23,3.40
1.82,5.55,3.71,-1.06,1.40,3.42
2.23,5.29,4.29,-1.06,1.49,3.44
2.75,4.98,5.04,-1.08,1.44,3.45
3.64,4.54,5.90,-1.13,1.24,3.45
5.00,4.02,6.69,-1.17,0.95,3.40
6.78,3.48,7.31,-1.20,0.63,3.28
8.55,2.99,7.90,-1.15,0.33,3.03
10.00,2.62,8.33,-1.04,0.03,2.70
11.19,2.34,8.76,-0.87,-0.22,2.28
12.28,2.13,9.00,-0.64,-0.40,1.80
13.13,1.98,9.10,-0.39,-0.50,1.25
13.41,1.99,9.10,-0.15,-0.55,0.64
13.24,2.09,9.00,0.07,-0.59,0.04
12.74,2.21,8.89,0.25,-0.64,-0.53
11.97,2.31,8.66,0.41,-0.72,-1.07
10.97,2.40,8.28,0.53,-0.84,-1.55
9.84,2.48,7.83,0.62,-0.97,-1.98
8.65,2.57,7.29,0.71,-1.07,-2.35
7.48,2.72,6.76,0.79,-1.16,-2.65
6.32,2.94,6.34,0.87,-1.25,-2.89
5.23,3.27,5.88,0.93,-1.34,-3.07
4.37,3.65,5.34,0.97,-1.42,-3.20
3.73,4.01,4.80,0.99,-1.46,-3.28
3.21,4.38,4.15,1.02,-1.43,-3.32
2.78,4.77,3.45,1.05,-1.32,-3.33
2.41,5.23,2.75,1.09,-1.15,-3.32
1.86,5.86,2.20,1.13,-0.95,-3.30
0.98,6.66,1.77,1.15,-0.70,-3.26
-0.09,7.60,1.41,1.16,-0.46,-3.19
-1.18,8.59,1.10,1.14,-0.24,-3.05
-2.13,9.53,0.80,1.09,-0.08,-2.85
-2.94,10.34,0.60,1.02,0.06,-2.57
-3.67,10.99,0.48,0.94,0.20,-2.23
-4.36,11.49,0.36,0.86,0.36,-1.83
-4.92,11.86,0.41,0.74,0.49,-1.38
-5.39,12.11,0.41,0.60,0.57,-0.91
-5.80,12.30,0.37,0.40,0.57,-0.43
-5.94,12.32,0.24,0.17,0.50,0.07
-5.68,12.05,0.10,-0.07,0.42,0.56
-5.20,11.63,-0.02,-0.28,0.37,1.00
-4.70,11.18,-0.03,-0.48,0.33,1.39
-4.10,10.69,0.03,-0.66,0.31,1.75
-3.45,10.19,0.22,-0.82,0.32,2.08
-2.82,9.71,0.42,-0.96,0.36,2.36
-2.25,9.25,0.68,-1.08,0.41,2.61
-1.73,8.75,0.97,-1.18,0.49,2.83
-1.36,8.20,1.24,-1.27,0.57,3.01
-1.07,7.63,1.44,-1.34,0.66,3.16
-0.68,7.07,1.71,-1.39,0.75,3.30
-0.15,6.51,1.99,-1.43,0.85,3.43
0.41,5.94,2.35,-1.44,0.97,3.53
0.85,5.42,2.78,-1.44,1.10,3.59
1.14,4.99,3.24,-1.42,1.20,3.64
1.38,4.60,3.79,-1.41,1.25,3.69
1.74,4.18,4.53,-1.41,1.20,3.74
2.29,3.67,5.49,-1.41,1.04,3.79
3.14,3.00,6.61,-1.40,0.76,3.80
4.21,2.29,7.52,-1.33,0.40,3.77
5.79,1.48,8.05,-1.25,0.02,3.70
8.07,0.57,8.44,-1.16,-0.37,3.53
10.81,-0.37,9.02,-1.01,-0.72,3.16
13.30,-1.10,9.63,-0.70,-0.89,2.60
15.05,-1.43,9.62,-0.29,-0.84,1.95
15.78,-1.36,9.28,0.10,-0.71,1.24
15.32,-0.95,8.76,0.44,-0.55,0.53
14.41,-0.60,8.14,0.71,-0.47,-0.12
13.13,-0.22,7.58,0.89,-0.47,-0.71
11.96,0.12,6.98,1.00,-0.54,-1.18
11.33,0.35,6.50,1.03,-0.69,-1.57
10.92,0.52,6.21,1.05,-0.84,-1.95
10.38,0.69,5.88,1.07,-0.99,-2.30
9.62,0.91,5.38,1.07,-1.12,-2.62
8.75,1.21,4.90,1.05,-1.26,-2.89
8.00,1.52,4.40,1.00,-1.39,-3.12
7.36,1.78,4.08,0.94,-1.49,-3.31
6.67,2.03,3.69,0.89,-1.52,-3.50
5.90,2.32,3.24,0.85,-1.47,-3.65
5.09,2.61,2.85,0.82,-1.36,-3.78
4.19,2.90,2.49,0.80,-1.21,-3.88
3.16,3.15,2.21,0.79,-1.01,-3.97
1.96,3.44,1.97,0.78,-0.86,-4.02
0.70,3.89,1.75,0.76,-0.75,-4.02
-0.45,4.52,1.50,0.74,-0.67,-3.97
-1.49,5.35,1.27,0.72,-0.61,-3.86
-2.49,6.34,1.02,0.71,-0.56,-3.71
-3.50,7.56,0.62,0.69,-0.49,-3.50
-4.46,8.91,0.10,0.65,-0.37,-3.22
-5.28,10.30,-0.44,0.61,-0.17,-2.86
-5.89,11.61,-0.77,0.57,0.09,-2.44
-6.22,12.67,-0.87,0.49,0.35,-1.95
-6.34,13.44,-1.02,0.37,0.58,-1.43
-6.34,13.90,-1.18,0.18,0.74,-0.88
-6.24,14.03,-1.32,-0.03,0.86,-0.32
-6.08,13.89,-1.26,-0.27,0.93,0.26
-5.55,13.42,-0.91,-0.52,0.97,0.90
-4.56,12.69,-0.45,-0.73,1.00,1.45
-3.55,11.88,0.04,-0.92,1.00,1.92
-2.61,11.00,0.48,-1.08,0.97,2.31
-1.74,10.07,0.78,-1.22,0.98,2.64
-0.93,9.08,0.97,-1.31,1.07,2.89
-0.31,8.08,1.09,-1.36,1.24,3.06
0.00,7.19,1.33,-1.39,1.45,3.18
0.21,6.50,1.68,-1.42,1.62,3.27
0.63,5.84,2.17,-1.47,1.76,3.34
1.21,5.29,2.70,-1.51,1.87,3.37
1.81,4.85,3.35,-1.54,1.91,3.36
2.42,4.48,4.11,-1.56,1.85,3.32
3.18,4.11,4.89,-1.59,1.66,3.26
4.21,3.76,5.55,-1.61,1.41,3.14
5.51,3.42,6.29,-1.59,1.16,2.98
6.97,3.06,7.00,-1.48,0.93,2.76
8.37,2.69,7.73,-1.28,0.76,2.45
9.60,2.41,8.38,-1.01,0.63,2.06
10.66,2.28,8.94,-0.72,0.56,1.60
aX,aY,aZ,gX,gY,gZ
-5.39,9.03,-1.31,-1.90,1.74,2.35
-5.04,8.56,-0.47,-2.07,1.86,2.66
-4.40,7.98,0.45,-2.25,1.87,2.93
-3.56,7.36,1.50,-2.41,1.81,3.14
-2.53,6.71,2.71,-2.56,1.66,3.31
-1.19,6.04,4.19,-2.66,1.41,3.47
0.59,5.31,5.66,-2.71,1.03,3.61
2.79,4.54,6.90,-2.66,0.63,3.66
4.99,3.89,7.72,-2.45,0.35,3.58
6.80,3.51,8.48,-2.10,0.20,3.38
8.39,3.34,9.29,-1.69,0.10,3.09
10.20,3.28,10.19,-1.28,0.02,2.68
11.80,3.18,10.91,-0.88,-0.09,2.14
12.70,3.12,11.31,-0.50,-0.24,1.49
13.45,3.05,11.25,-0.16,-0.44,0.78
13.57,3.09,10.79,0.18,-0.61,0.05
12.87,3.17,10.18,0.50,-0.74,-0.67
11.63,3.32,9.43,0.77,-0.89,-1.33
10.10,3.49,8.48,0.99,-1.08,-1.93
8.43,3.68,7.42,1.14,-1.27,-2.44
6.78,3.91,6.29,1.26,-1.44,-2.85
5.18,4.22,5.19,1.34,-1.55,-3.16
3.69,4.60,4.24,1.40,-1.58,-3.39
2.12,5.06,3.30,1.46,-1.49,-3.52
0.37,5.72,2.31,1.52,-1.32,-3.56
-1.41,6.52,1.41,1.56,-1.09,-3.51
-3.08,7.47,0.48,1.60,-0.77,-3.36
-4.38,8.38,-0.18,1.62,-0.43,-3.10
-5.20,9.07,-0.53,1.60,-0.14,-2.74
-5.96,9.64,-0.90,1.53,0.11,-2.30
-6.90,10.12,-1.36,1.39,0.31,-1.79
-7.72,10.54,-1.83,1.19,0.44,-1.23
-7.99,10.77,-2.15,0.92,0.47,-0.67
-7.78,10.80,-2.60,0.58,0.47,-0.15
-7.23,10.58,-2.79,0.24,0.57,0.35
-6.33,10.10,-2.77,-0.11,0.73,0.82
-5.37,9.55,-2.55,-0.42,0.98,1.24
-4.56,9.07,-2.14,-0.71,1.26,1.60
-3.81,8.69,-1.62,-0.98,1.53,1.89
-2.91,8.27,-0.94,-1.24,1.72,2.14
-1.85,7.80,0.07,-1.49,1.88,2.35
-0.69,7.34,1.55,-1.71,1.94,2.54
0.74,6.95,3.62,-1.91,1.79,2.70
2.54,6.53,5.86,-2.07,1.26,2.78
4.81,6.03,7.35,-2.12,0.52,2.74
7.23,5.41,8.28,-2.02,-0.18,2.56
9.58,4.82,8.77,-1.78,-0.70,2.26
11.76,4.36,8.91,-1.44,-0.97,1.78
13.14,4.18,8.66,-1.02,-0.98,1.09
13.56,4.25,8.23,-0.58,-0.77,0.26
13.22,4.41,7.79,-0.20,-0.51,-0.60
12.05,4.65,7.39,0.12,-0.32,-1.41
10.10,5.01,6.84,0.37,-0.24,-2.09
7.83,5.42,6.04,0.58,-0.31,-2.59
5.77,5.83,5.11,0.73,-0.47,-2.91
4.12,6.21,4.22,0.81,-0.64,-3.07
2.51,6.64,3.42,0.83,-0.76,-3.12
0.62,7.32,2.63,0.84,-0.77,-3.08
-1.30,8.13,1.88,0.82,-0.74,-2.94
-2.96,8.91,1.35,0.77,-0.67,-2.69
-4.17,9.56,0.88,0.69,-0.59,-2.36
-5.06,10.11,0.53,0.59,-0.49,-1.98
-5.84,10.59,0.13,0.45,-0.39,-1.57
-6.56,10.97,-0.22,0.27,-0.24,-1.10
-7.00,11.15,-0.41,0.09,-0.06,-0.57
-7.17,11.10,-0.45,-0.08,0.14,-0.04
-7.08,10.89,-0.44,-0.25,0.35,0.47
-6.71,10.53,-0.43,-0.42,0.58,0.94
-6.06,10.05,-0.33,-0.58,0.84,1.37
-5.24,9.50,-0.14,-0.74,1.10,1.75
-4.33,8.96,0.25,-0.91,1.35,2.07
-3.39,8.43,0.79,-1.08,1.57,2.35
-2.51,7.91,1.51,-1.25,1.74,2.58
-1.63,7.40,2.53,-1.40,1.82,2.77
-0.53,6.85,3.82,-1.54,1.76,2.93
0.95,6.20,5.20,-1.64,1.53,3.05
2.82,5.47,6.45,-1.65,1.20,3.09
4.95,4.79,7.54,-1.57,0.83,3.04
7.13,4.29,8.57,-1.40,0.48,2.86
9.15,3.99,9.47,-1.17,0.16,2.56
10.60,3.93,9.85,-0.89,-0.09,2.11
11.45,3.97,9.75,-0.58,-0.26,1.53
12.12,3.92,9.55,-0.26,-0.33,0.86
12.54,3.77,9.39,0.06,-0.35,0.15
12.18,3.75,9.15,0.37,-0.38,-0.56
10.91,3.87,8.70,0.65,-0.49,-1.22
9.15,4.07,7.95,0.86,-0.68,-1.79
7.26,4.32,7.12,1.00,-0.93,-2.26
5.42,4.61,6.31,1.08,-1.17,-2.64
3.60,5.00,5.41,1.11,-1.37,-2.95
1.90,5.45,4.49,1.10,-1.54,-3.19
0.40,5.97,3.51,1.08,-1.63,-3.33
-0.88,6.53,2.43,1.06,-1.62,-3.39
-2.12,7.20,1.49,1.06,-1.46,-3.36
-3.25,7.90,0.67,1.08,-1.25,-3.22
-4.15,8.42,0.29,1.12,-0.96,-2.99
-4.96,8.81,0.19,1.19,-0.67,-2.71
-5.26,9.18,0.03,1.18,-0.48,-2.35
-5.71,9.68,-0.59,1.03,-0.41,-1.91
-6.52,10.25,-1.00,0.92,-0.01,-1.35
-6.99,10.73,-1.17,0.67,0.23,-0.75
-6.77,10.93,-1.45,0.31,0.43,-0.16
-6.43,10.97,-1.48,-0.06,0.70,0.40
-5.93,10.74,-1.35,-0.42,0.98,0.93
-5.27,10.32,-1.06,-0.76,1.25,1.42
-4.41,9.83,-0.59,-1.10,1.50,1.87
-3.39,9.25,0.08,-1.38,1.79,2.25
-2.44,8.58,0.99,-1.61,2.01,2.55
-1.91,7.97,1.95,-1.81,2.11,2.76
-1.59,7.39,2.74,-1.98,2.05,2.91
-1.11,6.81,3.62,-2.11,1.89,3.05
-0.07,6.14,4.81,-2.17,1.64,3.16
1.48,5.39,6.27,-2.17,1.30,3.21
3.50,4.72,7.75,-2.09,0.88,3.18
5.73,4.18,8.92,-1.90,0.48,3.02
7.71,3.91,9.78,-1.63,0.11,2.73
9.28,3.79,10.24,-1.30,-0.20,2.34
10.39,3.77,10.38,-0.92,-0.39,1.85
11.57,3.77,10.27,-0.57,-0.53,1.26
12.27,3.80,10.02,-0.23,-0.62,0.57
11.98,3.88,9.58,0.09,-0.70,-0.14
11.16,3.95,9.07,0.35,-0.82,-0.80
10.10,4.04,8.50,0.55,-0.99,-1.39
8.85,4.18,8.02,0.70,-1.22,-1.91
7.50,4.31,7.48,0.80,-1.47,-2.36
6.19,4.41,6.69,0.87,-1.70,-2.72
5.06,4.49,5.67,0.92,-1.85,-3.00
4.13,4.59,4.72,0.99,-1.88,-3.21
3.14,4.77,4.06,1.05,-1.83,-3.38
1.77,5.15,3.46,1.12,-1.69,-3.51
0.09,5.73,2.92,1.15,-1.53,-3.58
-1.59,6.42,2.37,1.15,-1.36,-3.59
-3.12,7.21,1.71,1.13,-1.14,-3.52
-4.32,7.99,0.90,1.09,-0.85,-3.36
-5.14,8.56,0.51,1.08,-0.55,-3.10
-5.59,8.78,0.44,1.13,-0.22,-2.78
-6.09,8.94,0.36,1.20,0.12,-2.40
-6.88,9.38,0.27,1.15,0.37,-1.97
-7.79,10.04,0.19,0.98,0.53,-1.46
-8.43,10.64,0.00,0.70,0.58,-0.89
-8.52,10.89,-0.25,0.38,0.59,-0.31
-8.17,10.77,-0.53,0.07,0.64,0.25
-7.48,10.39,-0.66,-0.18,0.78,0.78
-6.51,9.90,-0.57,-0.39,1.02,1.25
-5.43,9.46,-0.28,-0.58,1.31,1.66
-4.44,9.07,0.27,-0.77,1.61,2.00
-3.60,8.68,0.83,-0.95,1.83,2.30
-2.94,8.32,1.43,-1.11,1.99,2.54
-2.30,7.95,2.04,-1.24,2.04,2.75
-1.61,7.57,2.76,-1.34,2.02,2.92
-0.80,7.22,3.61,-1.42,1.92,3.04
0.34,6.85,4.46,-1.46,1.73,3.09
1.75,6.49,5.31,-1.46,1.53,3.08
3.35,6.13,6.29,-1.40,1.29,3.03
5.08,5.73,7.17,-1.28,1.03,2.92
6.63,5.42,7.86,-1.09,0.78,2.71
7.89,5.24,8.45,-0.85,0.50,2.39
9.03,5.02,8.82,-0.58,0.22,2.00
10.28,4.73,8.95,-0.28,-0.02,1.53
11.34,4.49,8.71,0.03,-0.18,0.95
11.50,4.51,8.15,0.33,-0.25,0.30
11.07,4.64,7.48,0.59,-0.28,-0.35
10.35,4.74,6.73,0.80,-0.31,-0.97
9.22,4.86,5.93,0.96,-0.35,-1.54
7.80,5.04,5.18,1.05,-0.40,-2.03
6.26,5.35,4.65,1.07,-0.47,-2.43
4.65,5.75,4.09,1.06,-0.55,-2.72
3.07,6.18,3.42,1.04,-0.61,-2.91
1.68,6.58,2.62,1.01,-0.60,-3.01
0.40,7.02,1.88,1.00,-0.51,-3.04
-0.85,7.54,1.23,1.00,-0.37,-3.00
-2.12,8.08,0.69,1.01,-0.18,-2.89
-3.33,8.64,0.46,0.99,0.02,-2.71
-4.46,9.16,0.28,0.94,0.17,-2.47
-5.44,9.68,0.11,0.83,0.28,-2.15
-6.34,10.02,-0.26,0.65,0.33,-1.76
-7.30,10.32,-0.45,0.45,0.47,-1.29
-7.73,10.46,-0.55,0.16,0.47,-0.77
-7.57,10.37,-0.62,-0.17,0.49,-0.23
-7.32,10.21,-0.55,-0.51,0.55,0.30
-7.14,10.02,-0.36,-0.83,0.60,0.79
-6.67,9.75,-0.07,-1.13,0.60,1.25
-5.75,9.37,0.31,-1.40,0.59,1.67
-4.57,8.91,0.71,-1.63,0.62,2.02
-3.51,8.46,1.33,-1.81,0.70,2.28
-2.71,8.04,2.14,-1.94,0.75,2.47
-1.89,7.61,2.89,-2.02,0.73,2.61
-0.76,7.13,3.66,-2.03,0.73,2.71
0.46,6.71,4.47,-1.96,0.73,2.75
1.58,6.40,5.49,-1.85,0.70,2.75
2.77,6.19,6.67,-1.73,0.56,2.71
4.25,5.94,7.73,-1.59,0.27,2.62
5.64,5.63,8.62,-1.41,-0.06,2.45
6.75,5.32,9.21,-1.16,-0.44,2.19
7.95,4.98,9.43,-0.88,-0.80,1.85
9.27,4.63,9.37,-0.56,-1.02,1.42
10.21,4.42,9.12,-0.19,-1.07,0.89
11.15,4.30,8.69,0.14,-1.04,0.30
11.39,4.30,8.17,0.44,-0.92,-0.34
10.52,4.41,7.59,0.71,-0.81,-0.96
aX,aY,aZ,gX,gY,gZ
4.16,6.09,4.15,1.27,-0.55,-2.49
2.86,6.50,3.43,1.27,-0.61,-2.67
1.46,7.01,2.52,1.22,-0.64,-2.78
0.07,7.56,1.65,1.18,-0.56,-2.81
-1.23,8.15,0.75,1.16,-0.41,-2.75
-2.38,8.68,0.08,1.13,-0.21,-2.60
-3.42,9.12,-0.32,1.10,0.01,-2.38
-4.43,9.51,-0.56,1.02,0.20,-2.11
-5.35,9.86,-0.73,0.86,0.30,-1.77
-5.89,10.08,-0.92,0.60,0.32,-1.34
-5.95,10.09,-1.14,0.28,0.33,-0.89
-6.15,10.11,-1.26,-0.06,0.41,-0.44
-6.23,10.06,-1.13,-0.39,0.49,0.01
-5.90,9.81,-0.99,-0.72,0.55,0.42
-5.26,9.43,-0.74,-1.00,0.63,0.78
-4.40,8.97,-0.35,-1.26,0.70,1.08
-3.44,8.55,0.27,-1.49,0.79,1.33
-2.58,8.26,1.14,-1.68,0.85,1.54
-1.79,8.02,2.19,-1.82,0.81,1.70
-0.97,7.76,3.29,-1.91,0.67,1.81
0.05,7.47,4.25,-1.96,0.44,1.84
1.28,7.20,5.39,-1.96,0.15,1.81
2.79,6.98,6.43,-1.91,-0.18,1.73
4.41,6.78,7.28,-1.80,-0.49,1.62
5.65,6.68,7.85,-1.62,-0.68,1.44
6.16,6.71,8.14,-1.38,-0.75,1.20
6.12,6.79,8.09,-1.11,-0.74,0.94
6.16,6.75,7.97,-0.85,-0.70,0.66
6.42,6.64,8.09,-0.61,-0.66,0.35
6.71,6.51,8.51,-0.36,-0.65,0.05
6.99,6.39,9.31,-0.14,-0.77,-0.24
7.25,6.22,9.88,0.03,-1.07,-0.52
7.17,6.05,9.79,0.20,-1.43,-0.82
6.86,5.91,8.97,0.35,-1.76,-1.15
6.48,5.89,7.92,0.50,-1.96,-1.48
5.92,5.97,6.99,0.67,-1.98,-1.80
5.10,6.05,6.18,0.85,-1.78,-2.09
4.02,6.12,5.37,1.05,-1.41,-2.31
2.53,6.29,4.58,1.27,-0.97,-2.48
0.63,6.64,3.82,1.46,-0.63,-2.57
-1.38,7.13,3.06,1.60,-0.39,-2.59
-3.22,7.80,2.25,1.67,-0.22,-2.53
-4.56,8.50,1.57,1.64,-0.15,-2.36
-5.53,9.06,1.07,1.54,-0.13,-2.09
-6.26,9.43,0.65,1.40,-0.15,-1.72
-6.68,9.60,0.04,1.19,-0.21,-1.28
-6.87,9.71,-0.70,0.95,-0.21,-0.82
-6.76,9.75,-1.36,0.69,-0.13,-0.37
-6.40,9.68,-1.80,0.44,0.04,0.03
-5.97,9.51,-2.06,0.20,0.27,0.38
-5.49,9.27,-2.10,-0.03,0.54,0.69
-5.00,9.02,-1.89,-0.26,0.84,0.97
-4.61,8.79,-1.55,-0.49,1.12,1.22
-4.35,8.62,-1.03,-0.71,1.36,1.45
-4.08,8.43,-0.38,-0.94,1.51,1.67
-3.73,8.21,0.30,-1.15,1.60,1.87
-3.19,7.98,1.00,-1.35,1.63,2.06
-2.56,7.74,1.71,-1.51,1.66,2.24
-1.99,7.48,2.41,-1.63,1.68,2.40
-1.45,7.23,3.11,-1.71,1.69,2.55
-0.83,6.98,3.75,-1.76,1.68,2.68
-0.08,6.69,4.62,-1.78,1.66,2.78
0.84,6.31,5.84,-1.76,1.56,2.86
2.05,5.81,7.38,-1.70,1.32,2.90
3.67,5.21,8.79,-1.61,0.92,2.87
5.67,4.67,9.90,-1.45,0.46,2.74
7.68,4.29,10.43,-1.22,0.06,2.48
9.35,4.13,10.49,-0.91,-0.20,2.10
10.52,4.07,10.27,-0.56,-0.30,1.65
11.15,4.07,9.80,-0.20,-0.26,1.14
11.11,4.15,9.19,0.14,-0.15,0.60
10.50,4.32,8.49,0.42,-0.06,0.05
9.70,4.48,7.79,0.64,-0.03,-0.47
8.85,4.60,7.16,0.81,-0.06,-0.94
7.92,4.72,6.53,0.93,-0.14,-1.35
6.87,4.89,6.00,1.00,-0.27,-1.70
5.67,5.14,5.49,1.01,-0.44,-1.99
4.38,5.48,4.92,0.99,-0.63,-2.21
3.12,5.85,4.29,0.94,-0.82,-2.37
2.02,6.24,3.62,0.87,-0.97,-2.46
1.15,6.62,3.03,0.79,-1.05,-2.49
0.45,6.96,2.49,0.72,-1.04,-2.48
-0.18,7.32,2.08,0.65,-0.95,-2.42
-0.84,7.68,1.85,0.58,-0.79,-2.34
-1.72,8.11,1.72,0.52,-0.56,-2.22
-2.72,8.63,1.51,0.45,-0.30,-2.06
-3.73,9.16,1.32,0.37,-0.01,-1.84
-4.62,9.58,1.27,0.30,0.23,-1.54
-5.26,9.75,1.41,0.22,0.40,-1.18
-5.65,9.71,1.70,0.13,0.54,-0.77
-5.97,9.77,1.91,0.03,0.65,-0.35
-6.16,9.96,1.96,-0.11,0.69,0.09
-6.09,10.09,1.92,-0.28,0.69,0.52
-5.61,10.02,1.88,-0.46,0.70,0.93
-4.80,9.73,1.94,-0.62,0.74,1.32
-3.87,9.37,2.12,-0.76,0.83,1.67
-2.99,8.97,2.39,-0.88,0.96,1.95
-2.19,8.53,2.84,-1.00,1.07,2.19
-1.30,7.99,3.49,-1.12,1.10,2.40
-0.23,7.39,4.27,-1.23,1.03,2.56
0.98,6.78,5.00,-1.32,0.89,2.67
2.29,6.26,5.81,-1.37,0.69,2.70
4.02,5.69,6.56,-1.37,0.43,2.66
5.89,5.10,6.96,-1.33,0.16,2.47
6.87,4.80,7.47,-1.18,-0.02,2.15
7.35,4.74,7.94,-0.96,-0.22,1.82
8.40,4.57,8.32,-0.76,-0.42,1.54
10.04,4.24,8.66,-0.52,-0.52,1.18
11.26,3.99,8.60,-0.25,-0.50,0.70
11.27,4.03,8.29,-0.01,-0.46,0.15
10.40,4.27,7.88,0.16,-0.49,-0.38
9.36,4.48,7.46,0.27,-0.60,-0.86
8.27,4.62,7.12,0.33,-0.76,-1.30
7.20,4.75,6.65,0.37,-0.95,-1.68
6.29,4.87,6.08,0.37,-1.10,-1.99
5.54,4.96,5.55,0.37,-1.20,-2.23
4.73,5.04,5.24,0.38,-1.27,-2.42
3.79,5.22,5.00,0.42,-1.28,-2.58
2.85,5.54,4.76,0.45,-1.27,-2.69
1.93,5.99,4.30,0.49,-1.19,-2.75
1.02,6.57,3.85,0.52,-1.06,-2.77
0.01,7.22,3.49,0.57,-0.85,-2.74
-1.14,7.91,3.20,0.65,-0.58,-2.69
-2.42,8.63,2.85,0.72,-0.27,-2.63
-3.96,9.51,2.46,0.77,0.03,-2.49
-5.63,10.48,2.07,0.71,0.18,-2.15
-6.71,10.93,2.12,0.52,0.15,-1.53
-6.58,10.57,2.45,0.40,0.15,-0.92
-6.22,10.27,2.45,0.29,0.19,-0.41
-6.14,10.23,2.34,0.14,0.21,0.04
-6.21,10.27,2.11,-0.03,0.23,0.47
-6.00,10.09,1.80,-0.23,0.23,0.90
-5.36,9.66,1.57,-0.41,0.28,1.31
-4.48,9.15,1.56,-0.56,0.40,1.67
-3.68,8.62,1.77,-0.68,0.57,1.96
-3.05,8.06,2.10,-0.77,0.76,2.19
-2.58,7.56,2.44,-0.85,0.94,2.39
-2.19,7.16,2.80,-0.92,1.08,2.57
-1.64,6.77,3.22,-0.99,1.16,2.76
-0.83,6.36,3.94,-1.07,1.15,2.93
0.28,5.87,4.78,-1.14,1.03,3.06
1.68,5.27,5.64,-1.17,0.86,3.12
3.30,4.67,6.43,-1.14,0.64,3.07
5.13,4.15,7.05,-1.07,0.36,2.93
7.09,3.74,7.41,-0.98,0.08,2.68
8.84,3.48,7.76,-0.84,-0.14,2.31
10.10,3.39,8.15,-0.64,-0.25,1.84
10.94,3.34,8.42,-0.36,-0.25,1.35
11.50,3.34,8.41,-0.05,-0.15,0.85
11.63,3.53,8.04,0.23,-0.03,0.33
11.24,3.86,7.52,0.44,0.03,-0.19
10.42,4.18,6.92,0.59,-0.01,-0.68
9.41,4.42,6.36,0.67,-0.12,-1.11
8.35,4.64,5.89,0.70,-0.27,-1.48
7.25,4.89,5.54,0.70,-0.43,-1.78
6.07,5.18,5.15,0.68,-0.57,-2.03
4.84,5.57,4.66,0.67,-0.65,-2.23
3.68,6.01,4.07,0.66,-0.64,-2.35
2.58,6.47,3.45,0.67,-0.54,-2.42
1.44,7.02,2.83,0.71,-0.35,-2.43
0.23,7.70,2.19,0.75,-0.09,-2.37
-1.00,8.47,1.63,0.75,0.16,-2.24
-2.31,9.24,1.28,0.66,0.36,-1.98
-3.39,9.67,1.44,0.50,0.45,-1.59
-3.91,9.59,1.87,0.34,0.46,-1.18
-4.07,9.37,2.06,0.20,0.50,-0.79
-4.22,9.37,2.03,0.03,0.54,-0.39
-4.36,9.53,1.87,-0.16,0.59,0.01
-4.36,9.57,1.69,-0.37,0.64,0.41
-4.00,9.31,1.63,-0.59,0.69,0.81
-3.26,8.86,1.88,-0.79,0.77,1.18
-2.23,8.35,2.61,-0.96,0.84,1.50
-1.00,7.80,3.83,-1.12,0.80,1.79
0.36,7.24,5.14,-1.24,0.60,1.98
1.65,6.78,6.22,-1.31,0.29,2.08
2.89,6.49,7.11,-1.32,-0.08,2.11
4.50,6.26,7.74,-1.31,-0.51,2.13
6.89,5.77,8.29,-1.26,-0.92,2.06
9.39,5.16,8.91,-1.11,-1.18,1.80
11.09,4.70,9.24,-0.87,-1.24,1.41
11.85,4.54,9.23,-0.61,-1.19,0.99
12.03,4.60,8.96,-0.38,-1.12,0.56
11.98,4.67,8.48,-0.19,-1.08,0.14
11.81,4.61,7.92,-0.05,-1.04,-0.27
11.49,4.47,7.34,0.07,-1.01,-0.68
11.05,4.31,6.81,0.17,-0.98,-1.06
10.53,4.14,6.26,0.25,-0.97,-1.43
9.99,3.96,5.58,0.30,-0.94,-1.79
9.37,3.80,4.77,0.34,-0.82,-2.14
8.66,3.66,3.89,0.38,-0.60,-2.46
7.85,3.56,3.08,0.44,-0.28,-2.76
6.97,3.51,2.52,0.49,0.08,-3.01
6.12,3.47,2.25,0.54,0.41,-3.22
5.37,3.33,2.01,0.57,0.69,-3.41
4.61,3.11,1.80,0.61,0.92,-3.58
3.74,2.86,1.64,0.66,1.10,-3.74
2.83,2.66,1.42,0.71,1.20,-3.86
2.00,2.51,1.25,0.76,1.28,-3.96
1.15,2.40,0.98,0.81,1.34,-4.07
0.24,2.30,0.90,0.85,1.38,-4.16
aX,aY,aZ,gX,gY,gZ
-17.32,2.07,5.36,0.58,0.08,0.72
-16.89,1.68,4.96,0.64,0.02,1.02
-16.49,1.35,4.67,0.70,-0.03,1.32
-16.18,1.16,4.42,0.79,-0.02,1.58
-15.92,1.01,3.92,0.90,0.04,1.80
-15.68,0.81,3.35,0.99,0.12,1.98
-15.50,0.64,2.80,1.05,0.20,2.12
-15.40,0.59,2.38,1.06,0.24,2.24
-15.22,0.55,1.89,1.01,0.19,2.34
-14.89,0.43,1.39,0.88,0.07,2.43
-14.49,0.21,1.07,0.71,-0.06,2.50
-14.11,0.02,0.79,0.56,-0.15,2.57
-13.82,-0.08,0.55,0.45,-0.21,2.63
-13.62,-0.12,0.38,0.35,-0.27,2.71
-13.43,-0.09,0.21,0.27,-0.33,2.83
-13.08,-0.02,-0.01,0.18,-0.39,2.96
-12.56,0.04,-0.20,0.08,-0.43,3.08
-11.91,0.09,-0.30,-0.01,-0.47,3.19
-11.18,0.12,-0.46,-0.07,-0.46,3.26
-10.34,0.08,-0.42,-0.08,-0.39,3.28
-9.52,0.04,-0.23,0.01,-0.22,3.22
-9.03,0.25,-0.24,0.15,0.02,3.13
-8.94,0.72,-0.40,0.27,0.25,3.07
-9.00,1.24,-0.51,0.34,0.47,3.07
-9.15,1.69,-0.55,0.40,0.67,3.13
-9.19,1.96,-0.57,0.43,0.82,3.21
-9.15,2.10,-0.70,0.45,0.96,3.30
-8.98,2.20,-0.95,0.43,1.08,3.35
-8.69,2.33,-1.11,0.36,1.16,3.37
-8.35,2.41,-1.16,0.25,1.23,3.35
-8.04,2.33,-1.14,0.12,1.28,3.30
-7.75,2.20,-1.11,-0.01,1.32,3.24
-7.50,2.17,-1.06,-0.13,1.35,3.18
-7.29,2.21,-0.93,-0.26,1.33,3.14
-7.09,2.22,-0.92,-0.39,1.28,3.13
-6.84,2.11,-1.01,-0.53,1.21,3.16
-6.45,1.88,-1.16,-0.67,1.16,3.22
-5.84,1.59,-1.20,-0.81,1.13,3.27
-5.04,1.22,-1.03,-0.96,1.11,3.30
-4.12,0.85,-0.51,-1.10,1.10,3.26
-3.16,0.49,-0.20,-1.20,1.13,3.14
-2.32,0.19,-0.35,-1.29,1.20,2.92
-1.82,0.03,-0.62,-1.45,1.20,2.62
-1.77,0.13,-0.55,-1.72,1.04,2.30
-3.11,1.33,-0.81,-2.10,0.77,2.23
-3.80,1.46,-1.47,-2.60,0.82,2.80
-3.84,0.66,0.53,-3.00,0.76,3.19
-3.64,0.05,1.07,-3.25,0.58,3.47
-3.30,-0.53,2.37,-3.47,0.38,3.71
-3.01,-0.86,3.88,-3.62,0.03,3.85
-2.78,-1.25,5.36,-3.65,-0.33,4.01
-2.49,-1.72,6.18,-3.55,-0.63,4.17
-2.07,-2.06,6.51,-3.42,-0.88,4.37
-1.23,-2.38,6.54,-3.27,-1.08,4.59
-0.12,-2.64,6.53,-3.14,-1.27,4.77
1.11,-2.91,6.65,-3.05,-1.45,4.88
2.15,-3.16,6.97,-2.97,-1.61,4.93
2.95,-3.55,7.63,-2.87,-1.72,4.95
3.67,-4.11,8.38,-2.73,-1.83,4.93
4.30,-4.71,9.09,-2.55,-1.95,4.90
5.06,-5.38,9.56,-2.33,-2.06,4.87
6.09,-6.03,9.62,-2.07,-2.12,4.85
7.45,-6.67,9.32,-1.79,-2.10,4.82
9.00,-7.28,8.95,-1.49,-2.00,4.74
10.56,-7.89,8.69,-1.19,-1.83,4.58
11.66,-8.48,8.88,-0.86,-1.60,4.32
12.16,-8.96,9.18,-0.45,-1.35,4.01
12.42,-9.22,9.17,-0.02,-1.10,3.71
12.72,-9.25,8.94,0.32,-0.92,3.44
13.14,-9.10,8.67,0.57,-0.79,3.17
13.63,-8.91,8.35,0.77,-0.69,2.87
14.09,-8.71,7.84,0.94,-0.59,2.54
14.32,-8.43,7.31,1.08,-0.47,2.18
14.22,-8.04,6.76,1.20,-0.31,1.81
13.77,-7.66,6.51,1.27,-0.20,1.43
13.11,-7.35,6.49,1.28,-0.21,1.05
12.69,-7.20,6.58,1.21,-0.36,0.69
12.74,-7.18,6.68,1.07,-0.60,0.32
13.14,-7.23,6.69,0.93,-0.84,-0.10
13.49,-7.25,6.50,0.82,-1.03,-0.58
13.65,-7.21,6.27,0.71,-1.17,-1.07
13.70,-7.15,6.01,0.63,-1.27,-1.56
13.42,-7.01,5.81,0.58,-1.33,-2.07
12.76,-6.75,5.58,0.56,-1.37,-2.55
11.94,-6.39,5.29,0.56,-1.41,-2.96
11.23,-5.94,4.99,0.53,-1.49,-3.31
10.71,-5.49,4.74,0.46,-1.61,-3.62
10.29,-5.03,4.30,0.35,-1.72,-3.89
9.86,-4.40,3.94,0.20,-1.82,-4.10
9.55,-3.64,3.45,0.04,-1.87,-4.26
9.50,-2.83,2.94,-0.11,-1.88,-4.37
9.77,-2.03,2.55,-0.21,-1.78,-4.40
10.25,-1.29,2.37,-0.27,-1.58,-4.40
10.47,-0.61,2.44,-0.27,-1.30,-4.44
10.10,0.10,2.62,-0.19,-0.98,-4.50
9.26,0.78,2.85,-0.07,-0.68,-4.52
8.25,1.43,3.04,0.02,-0.52,-4.51
7.23,2.13,3.21,0.05,-0.51,-4.46
6.41,2.83,3.37,-0.00,-0.62,-4.40
5.87,3.33,3.43,-0.09,-0.78,-4.32
5.61,3.55,3.31,-0.19,-0.91,-4.26
5.56,3.58,3.02,-0.27,-0.94,-4.22
5.61,3.45,2.64,-0.30,-0.84,-4.23
5.54,3.33,2.24,-0.30,-0.63,-4.29
5.13,3.18,2.10,-0.26,-0.39,-4.39
4.45,2.95,2.02,-0.22,-0.18,-4.52
3.54,2.65,1.92,-0.20,-0.02,-4.64
2.46,2.33,1.82,-0.17,0.10,-4.74
1.23,2.06,1.79,-0.13,0.16,-4.77
-0.05,1.90,1.48,-0.11,0.17,-4.72
-1.17,1.85,0.99,-0.14,0.14,-4.57
-1.92,1.85,0.57,-0.25,0.10,-4.34
-2.17,1.76,0.17,-0.42,0.06,-4.10
-2.03,1.49,-0.10,-0.62,0.09,-3.88
-1.83,0.92,-0.11,-0.81,0.11,-3.75
-1.95,0.08,0.02,-0.98,0.11,-3.74
-2.57,-0.77,0.38,-1.08,0.10,-3.83
-3.29,-1.65,1.50,-0.95,0.15,-4.04
-4.24,-1.86,1.21,-0.63,0.39,-4.29
-5.41,-1.37,0.80,-0.49,0.56,-4.41
-6.34,-0.86,0.88,-0.43,0.70,-4.39
-7.18,-0.60,1.02,-0.39,0.77,-4.33
-8.20,-0.45,1.03,-0.40,0.74,-4.27
-9.22,-0.27,1.03,-0.42,0.68,-4.22
-9.93,-0.06,1.02,-0.45,0.61,-4.14
-10.18,0.06,1.09,-0.47,0.58,-4.05
-10.13,0.03,1.22,-0.45,0.60,-3.95
-10.29,0.12,1.19,-0.37,0.66,-3.85
-10.87,0.52,1.09,-0.27,0.74,-3.73
-11.55,1.10,1.14,-0.18,0.82,-3.58
-12.13,1.62,1.43,-0.13,0.84,-3.44
-12.65,1.94,1.66,-0.13,0.76,-3.30
-13.10,2.19,1.79,-0.18,0.64,-3.14
-13.40,2.50,1.88,-0.24,0.54,-2.96
-13.48,2.77,2.01,-0.29,0.51,-2.75
-13.39,2.96,2.17,-0.30,0.51,-2.55
-13.33,3.18,2.35,-0.25,0.57,-2.36
-13.56,3.51,2.52,-0.15,0.65,-2.20
-14.07,3.96,2.51,0.01,0.72,-2.06
-14.59,4.47,2.35,0.17,0.81,-1.93
-14.97,4.95,2.17,0.34,0.91,-1.78
-15.47,5.40,2.01,0.52,1.02,-1.62
-16.25,5.82,1.75,0.69,1.08,-1.36
-17.12,6.36,1.57,0.84,1.15,-1.01
-18.09,7.20,1.28,0.96,1.20,-0.52
-18.38,7.76,0.86,1.00,1.17,0.10
-18.19,8.20,0.35,0.90,1.03,0.52
-17.28,8.35,0.62,0.74,0.81,0.63
-16.63,8.34,0.11,0.77,0.77,0.62
-16.98,8.28,-0.26,0.54,0.52,0.49
-17.35,7.97,-0.15,0.36,0.30,0.42
-16.83,7.53,-0.35,0.32,0.26,0.40
-16.20,7.37,-0.68,0.33,0.34,0.45
-16.09,7.36,-1.01,0.35,0.44,0.63
-16.26,7.24,-1.37,0.34,0.50,0.94
-16.19,6.89,-1.67,0.28,0.50,1.34
-15.64,6.33,-1.97,0.16,0.44,1.71
-14.88,5.74,-2.19,0.03,0.36,1.97
-14.27,5.29,-2.42,-0.09,0.31,2.13
-13.94,5.04,-2.63,-0.19,0.30,2.24
-13.76,4.89,-2.72,-0.28,0.32,2.39
-13.53,4.70,-2.73,-0.35,0.36,2.58
-13.34,4.52,-2.68,-0.42,0.41,2.81
-13.25,4.41,-2.67,-0.48,0.42,3.04
-13.12,4.30,-2.66,-0.57,0.39,3.27
-12.78,4.13,-2.46,-0.68,0.34,3.45
-12.25,3.92,-2.23,-0.77,0.29,3.58
-11.66,3.77,-2.07,-0.84,0.24,3.65
-11.09,3.70,-1.98,-0.89,0.20,3.71
-10.55,3.73,-1.87,-0.90,0.18,3.78
-10.01,3.74,-1.63,-0.90,0.20,3.85
-9.22,3.52,-1.18,-0.89,0.22,3.90
-8.39,3.31,-0.76,-0.88,0.21,3.87
-7.64,3.30,-0.30,-0.85,0.18,3.77
-7.18,3.55,-0.03,-0.77,0.15,3.65
-6.91,3.96,-0.20,-0.67,0.17,3.59
-6.63,4.38,-0.59,-0.62,0.24,3.60
-6.34,4.68,-0.95,-0.64,0.31,3.68
-6.05,4.81,-1.06,-0.68,0.38,3.81
-5.60,4.75,-0.88,-0.76,0.41,3.97
-4.97,4.50,-0.33,-0.85,0.40,4.13
-4.17,4.08,0.33,-0.88,0.40,4.23
-3.22,3.72,0.55,-0.84,0.42,4.25
-2.21,3.51,0.41,-0.79,0.50,4.18
-1.29,3.48,0.19,-0.74,0.62,4.04
-0.53,3.50,0.06,-0.72,0.76,3.85
0.03,3.47,-0.12,-0.71,0.91,3.65
0.43,3.33,-0.26,-0.74,1.06,3.45
0.74,3.10,-0.49,-0.79,1.24,3.25
0.92,2.85,-0.52,-0.88,1.37,3.06
0.99,2.65,-0.26,-1.02,1.41,2.86
0.83,2.58,0.12,-1.20,1.35,2.66
-0.38,2.97,0.06,-1.50,1.25,2.83
-0.51,2.36,1.12,-1.73,1.23,3.14
-0.46,1.94,1.35,-1.88,1.18,3.34
0.08,1.30,1.70,-2.04,1.13,3.49
0.68,0.74,2.31,-2.16,1.08,3.55
1.08,0.36,2.90,-2.25,1.04,3.56
1.33,0.11,3.51,-2.32,0.95,3.56
1.56,-0.06,4.01,-2.37,0.84,3.58
aX,aY,aZ,gX,gY,gZ
-9.83,4.54,0.40,-0.39,-0.03,-2.60
-10.28,4.87,0.02,-0.26,0.08,-2.55
-10.47,5.32,-0.19,-0.16,0.18,-2.52
-10.46,5.71,-0.15,-0.09,0.25,-2.51
-10.56,5.93,0.05,-0.04,0.36,-2.51
-11.05,6.10,0.11,0.03,0.49,-2.51
-11.83,6.35,0.26,0.09,0.59,-2.46
-12.82,6.72,0.30,0.13,0.61,-2.37
-14.01,7.33,0.29,0.16,0.57,-2.18
-14.72,7.62,0.12,0.16,0.51,-1.90
-14.75,7.44,0.02,0.07,0.37,-1.72
-14.66,7.15,0.44,-0.01,0.26,-1.57
-14.78,7.29,0.23,0.07,0.31,-1.40
-15.43,7.76,0.11,-0.00,0.23,-1.17
-15.78,7.98,0.25,-0.07,0.15,-0.88
-15.48,7.86,0.28,-0.07,0.11,-0.64
-15.11,7.73,0.23,-0.03,0.11,-0.46
-15.08,7.74,0.19,0.03,0.16,-0.27
-15.16,7.75,0.08,0.08,0.21,-0.04
-15.10,7.63,-0.02,0.10,0.24,0.24
-14.79,7.37,-0.14,0.09,0.25,0.51
-14.37,7.07,-0.29,0.08,0.25,0.73
-13.98,6.80,-0.41,0.07,0.25,0.91
-13.62,6.60,-0.52,0.05,0.24,1.06
-13.30,6.44,-0.67,0.01,0.22,1.19
-13.01,6.26,-0.80,-0.04,0.19,1.32
-12.81,6.07,-0.87,-0.09,0.16,1.44
-12.70,5.90,-0.87,-0.13,0.15,1.58
-12.55,5.74,-0.81,-0.17,0.13,1.71
-12.29,5.60,-0.78,-0.22,0.11,1.85
-11.98,5.49,-0.78,-0.26,0.10,1.97
-11.72,5.42,-0.82,-0.28,0.10,2.07
-11.54,5.36,-0.85,-0.29,0.12,2.16
-11.41,5.30,-0.79,-0.29,0.16,2.25
-11.31,5.25,-0.70,-0.29,0.21,2.35
-11.20,5.25,-0.62,-0.29,0.25,2.46
-11.09,5.28,-0.58,-0.29,0.29,2.58
-11.01,5.32,-0.59,-0.29,0.31,2.71
-10.95,5.34,-0.66,-0.30,0.33,2.85
-10.83,5.33,-0.70,-0.30,0.36,2.99
-10.59,5.30,-0.68,-0.32,0.39,3.14
-10.25,5.24,-0.63,-0.34,0.41,3.27
-9.88,5.18,-0.61,-0.38,0.42,3.39
-9.40,5.14,-0.61,-0.44,0.42,3.50
-8.76,5.10,-0.59,-0.51,0.41,3.59
-7.86,4.96,-0.57,-0.58,0.41,3.65
-6.67,4.70,-0.47,-0.62,0.41,3.61
-5.83,4.56,-0.35,-0.62,0.46,3.48
-5.50,4.61,-0.36,-0.57,0.54,3.34
-5.46,4.77,-0.44,-0.54,0.63,3.28
-5.40,4.95,-0.32,-0.55,0.68,3.31
-5.13,5.07,-0.11,-0.59,0.71,3.43
-4.66,4.97,0.12,-0.60,0.74,3.57
-4.07,4.62,0.24,-0.60,0.79,3.69
-3.40,4.20,0.12,-0.56,0.86,3.74
-2.72,3.93,-0.24,-0.52,0.96,3.71
-2.08,3.77,-0.60,-0.52,1.08,3.62
-1.59,3.62,-0.57,-0.58,1.18,3.51
-1.25,3.40,-0.22,-0.64,1.27,3.40
-0.96,3.12,0.08,-0.71,1.34,3.31
-0.60,2.82,0.22,-0.79,1.41,3.23
-0.20,2.48,0.28,-0.88,1.49,3.12
0.14,2.11,0.55,-0.99,1.56,2.98
0.22,1.73,1.07,-1.10,1.57,2.77
0.03,1.45,1.66,-1.23,1.47,2.53
-1.21,2.03,1.65,-1.41,1.34,2.55
-1.45,1.74,2.44,-1.54,1.32,2.95
-0.90,1.57,2.69,-1.56,1.33,3.22
0.06,1.43,2.97,-1.65,1.28,3.41
0.94,1.26,3.65,-1.74,1.21,3.48
1.35,1.20,4.32,-1.78,1.13,3.48
1.42,1.15,4.76,-1.81,1.03,3.48
1.32,1.03,5.25,-1.86,0.85,3.51
1.34,0.80,5.77,-1.92,0.61,3.57
1.62,0.44,6.38,-2.00,0.33,3.66
2.26,-0.04,6.76,-2.07,0.06,3.79
3.30,-0.57,7.16,-2.10,-0.15,3.91
4.88,-1.17,7.37,-2.08,-0.27,3.97
6.74,-1.78,7.73,-2.01,-0.34,3.90
8.43,-2.25,8.15,-1.87,-0.31,3.72
9.62,-2.52,8.78,-1.61,-0.11,3.50
10.24,-2.64,9.57,-1.24,0.17,3.26
10.43,-2.67,10.16,-0.83,0.45,3.03
10.47,-2.60,10.36,-0.53,0.60,2.84
10.63,-2.55,10.51,-0.36,0.60,2.68
11.04,-2.60,10.63,-0.28,0.49,2.53
11.70,-2.80,10.63,-0.22,0.37,2.36
12.43,-3.06,10.55,-0.16,0.27,2.16
12.99,-3.26,10.38,-0.08,0.18,1.91
13.32,-3.33,10.23,-0.02,0.08,1.64
13.60,-3.37,10.14,0.01,-0.06,1.38
13.81,-3.41,10.16,0.01,-0.26,1.09
13.93,-3.44,10.06,0.00,-0.47,0.79
13.93,-3.36,9.78,0.01,-0.67,0.47
13.78,-3.10,9.26,0.02,-0.83,0.15
13.61,-2.72,8.55,0.04,-0.95,-0.15
13.42,-2.33,7.83,0.03,-1.06,-0.44
13.08,-1.98,7.17,0.01,-1.15,-0.72
12.65,-1.74,6.62,-0.02,-1.24,-0.98
12.19,-1.54,6.27,-0.07,-1.34,-1.21
11.70,-1.34,5.98,-0.12,-1.42,-1.43
11.17,-1.13,5.65,-0.15,-1.48,-1.61
10.59,-0.87,5.31,-0.18,-1.52,-1.76
10.16,-0.63,4.98,-0.23,-1.56,-1.87
10.00,-0.48,4.75,-0.30,-1.60,-1.96
10.05,-0.48,4.63,-0.38,-1.65,-2.07
10.08,-0.55,4.58,-0.42,-1.65,-2.21
10.02,-0.55,4.55,-0.41,-1.58,-2.35
9.93,-0.48,4.49,-0.37,-1.48,-2.49
9.76,-0.36,4.55,-0.31,-1.37,-2.62
9.53,-0.23,4.61,-0.25,-1.27,-2.76
9.15,-0.11,4.64,-0.18,-1.18,-2.90
8.64,0.04,4.48,-0.09,-1.09,-3.03
8.26,0.11,4.35,0.00,-1.03,-3.15
7.92,0.31,4.18,0.09,-0.98,-3.26
7.53,0.60,4.07,0.16,-0.95,-3.35
7.10,0.87,3.94,0.23,-0.91,-3.43
6.73,1.09,3.77,0.29,-0.86,-3.48
6.48,1.22,3.51,0.35,-0.77,-3.54
6.24,1.33,3.24,0.43,-0.62,-3.60
5.97,1.47,2.94,0.53,-0.42,-3.66
5.54,1.72,2.80,0.63,-0.23,-3.74
4.86,2.14,2.62,0.71,-0.13,-3.82
3.90,2.69,2.42,0.73,-0.15,-3.88
2.88,3.24,2.18,0.68,-0.29,-3.87
2.08,3.68,1.97,0.57,-0.49,-3.81
1.74,3.93,1.75,0.43,-0.72,-3.70
1.86,3.94,1.53,0.28,-0.90,-3.62
2.15,3.82,1.13,0.15,-0.98,-3.60
2.32,3.70,0.72,0.05,-0.93,-3.62
2.24,3.61,0.32,-0.03,-0.80,-3.69
1.89,3.57,-0.09,-0.09,-0.61,-3.75
1.25,3.67,-0.34,-0.18,-0.42,-3.75
0.48,3.80,-0.36,-0.27,-0.29,-3.68
-0.20,3.87,-0.25,-0.37,-0.28,-3.58
-0.62,3.94,-0.25,-0.50,-0.35,-3.48
-0.73,4.01,-0.28,-0.66,-0.49,-3.41
-0.63,4.00,-0.49,-0.86,-0.64,-3.40
-0.54,3.79,-0.76,-1.08,-0.74,-3.45
-0.55,3.40,-1.02,-1.31,-0.77,-3.55
-0.58,2.83,-1.02,-1.54,-0.70,-3.69
-0.22,1.75,0.41,-1.47,-0.48,-3.91
-0.45,1.02,0.38,-1.08,0.05,-4.25
-1.86,0.91,0.26,-0.81,0.41,-4.56
-3.71,0.98,0.26,-0.66,0.59,-4.76
-5.33,0.83,0.22,-0.58,0.67,-4.88
-6.45,0.30,0.36,-0.50,0.75,-4.95
-7.51,-0.36,0.76,-0.33,0.92,-5.02
-9.07,-0.70,1.02,-0.14,1.04,-5.06
-11.00,-0.67,1.33,-0.01,1.05,-5.05
-12.84,-0.42,1.53,0.05,0.97,-4.96
-14.18,0.00,1.53,0.03,0.85,-4.83
-14.95,0.57,1.48,-0.03,0.71,-4.65
-15.49,1.20,1.44,-0.09,0.61,-4.46
-16.15,1.88,1.46,-0.13,0.52,-4.19
-16.81,2.54,1.44,-0.16,0.41,-3.85
-17.36,3.20,1.46,-0.18,0.31,-3.45
-17.74,3.92,1.57,-0.17,0.24,-2.99
-17.89,4.70,1.72,-0.09,0.23,-2.48
-17.81,5.53,1.70,0.05,0.31,-1.92
-17.62,5.99,1.48,0.19,0.41,-1.42
-17.28,6.30,1.29,0.27,0.47,-0.99
-16.36,6.47,1.18,0.28,0.47,-0.71
-15.73,6.83,0.93,0.19,0.35,-0.67
-15.13,6.82,1.54,0.09,0.25,-0.69
-15.43,7.30,1.35,0.18,0.27,-0.73
-16.38,7.83,0.71,-0.01,0.12,-0.57
-17.18,8.05,0.96,-0.33,-0.14,-0.29
-16.97,7.75,1.39,-0.52,-0.33,-0.00
-16.04,7.26,1.70,-0.58,-0.42,0.21
-15.21,6.85,2.02,-0.53,-0.42,0.36
-14.97,6.58,2.24,-0.39,-0.34,0.51
-15.01,6.34,2.30,-0.22,-0.24,0.69
-14.99,6.07,2.25,-0.09,-0.16,0.88
-14.81,5.79,2.13,0.01,-0.11,1.05
-14.53,5.48,1.98,0.08,-0.07,1.22
-14.35,5.21,1.83,0.14,-0.02,1.40
-14.26,4.99,1.66,0.20,0.04,1.62
-14.15,4.83,1.44,0.24,0.08,1.89
-13.93,4.70,1.22,0.24,0.11,2.19
-13.57,4.58,1.07,0.21,0.10,2.48
-13.07,4.38,0.99,0.17,0.08,2.72
-12.41,4.12,0.90,0.12,0.04,2.89
-11.69,3.88,0.84,0.08,0.02,2.98
-11.02,3.74,0.82,0.06,0.02,2.99
-10.45,3.74,0.76,0.05,0.02,2.95
-10.02,3.85,0.66,0.06,0.03,2.88
-9.71,4.00,0.59,0.05,0.05,2.83
-9.44,4.11,0.58,0.03,0.07,2.81
-9.15,4.18,0.65,0.00,0.08,2.85
-8.81,4.26,0.74,-0.00,0.10,2.91
-8.40,4.40,0.79,0.02,0.14,3.00
-7.89,4.59,0.68,0.04,0.17,3.09
-7.30,4.78,0.52,0.04,0.21,3.17
-6.70,4.91,0.40,0.02,0.24,3.22
-6.13,4.95,0.29,-0.01,0.27,3.24
-5.64,4.97,0.29,-0.05,0.30,3.22
-5.22,5.03,0.31,-0.07,0.33,3.20
-4.84,5.15,0.27,-0.09,0.36,3.16
-4.50,5.28,0.34,-0.12,0.39,3.13
aX,aY,aZ,gX,gY,gZ
14.56,-5.30,8.68,0.80,-0.12,0.06
13.89,-4.93,8.19,0.84,-0.15,-0.37
12.68,-4.48,7.84,0.87,-0.22,-0.80
11.42,-4.07,7.46,0.85,-0.37,-1.15
10.52,-3.71,7.20,0.78,-0.61,-1.43
10.04,-3.43,6.99,0.67,-0.90,-1.69
9.86,-3.30,6.85,0.56,-1.19,-1.94
9.77,-3.30,6.70,0.49,-1.43,-2.20
9.69,-3.38,6.50,0.45,-1.60,-2.48
9.51,-3.41,6.16,0.46,-1.69,-2.76
9.20,-3.30,5.60,0.50,-1.68,-3.04
8.68,-2.94,4.73,0.54,-1.61,-3.32
7.98,-2.35,3.87,0.49,-1.56,-3.56
7.18,-1.58,3.45,0.38,-1.59,-3.78
6.41,-0.76,3.36,0.26,-1.64,-3.94
5.73,-0.07,3.40,0.15,-1.71,-4.04
5.21,0.35,3.62,0.01,-1.80,-4.11
4.90,0.54,3.83,-0.11,-1.87,-4.14
4.68,0.69,3.94,-0.22,-1.87,-4.18
4.41,0.94,4.02,-0.28,-1.81,-4.21
4.08,1.26,3.96,-0.24,-1.59,-4.23
3.64,1.63,4.06,-0.12,-1.31,-4.23
3.09,1.98,4.18,0.05,-1.04,-4.22
2.35,2.33,4.16,0.25,-0.82,-4.23
1.38,2.74,3.92,0.48,-0.68,-4.25
0.26,3.30,3.58,0.71,-0.60,-4.28
-0.93,4.19,2.97,0.94,-0.57,-4.30
-2.04,5.19,2.29,1.08,-0.59,-4.26
-2.97,6.14,1.54,1.13,-0.64,-4.15
-3.65,6.79,0.71,1.04,-0.72,-3.95
-4.08,7.02,-0.20,0.85,-0.78,-3.67
-4.40,6.99,-1.19,0.64,-0.75,-3.39
-4.91,7.00,-1.92,0.46,-0.59,-3.16
-5.69,7.20,-2.39,0.39,-0.34,-2.99
-6.51,7.43,-2.34,0.50,-0.04,-2.82
-6.72,7.77,-3.20,0.70,0.42,-2.60
-6.41,8.14,-3.95,0.63,0.72,-2.31
-6.08,8.40,-4.33,0.30,0.87,-1.99
-6.03,8.54,-4.53,-0.15,0.95,-1.66
-6.01,8.43,-4.46,-0.65,1.00,-1.34
-5.75,8.20,-4.21,-1.17,1.05,-1.05
-5.26,7.92,-3.73,-1.70,1.12,-0.83
-4.80,7.70,-3.13,-2.20,1.20,-0.70
-4.42,7.55,-2.46,-2.64,1.30,-0.66
-4.03,7.37,-2.02,-2.96,1.50,-0.67
-3.63,7.12,-1.56,-3.22,1.72,-0.76
-3.39,6.98,-1.02,-3.39,1.98,-0.87
-3.37,6.93,-0.47,-3.50,2.23,-0.95
-3.62,6.92,0.17,-3.56,2.50,-0.98
-4.23,6.83,0.72,-3.58,2.74,-0.98
-4.92,6.59,1.53,-3.63,2.89,-0.93
-5.52,6.22,3.62,-3.75,2.87,-0.86
-5.91,5.81,6.46,-3.83,2.70,-0.80
-5.66,5.59,8.46,-3.81,2.46,-0.78
-5.06,5.63,9.22,-3.83,2.16,-0.87
-4.49,6.12,9.06,-3.84,1.91,-0.97
-4.00,6.29,8.46,-3.79,1.80,-0.94
-3.65,5.95,8.44,-3.83,1.66,-0.96
-3.61,5.44,9.75,-3.93,1.47,-1.04
-3.48,4.95,11.45,-3.99,1.22,-1.12
-3.11,4.53,12.90,-3.97,0.98,-1.12
-2.69,4.10,14.19,-3.89,0.76,-1.01
-2.73,3.62,15.48,-3.65,0.63,-0.82
-3.21,3.12,16.62,-3.24,0.53,-0.60
-3.52,2.60,17.20,-2.76,0.45,-0.37
-3.22,2.11,17.47,-2.31,0.34,-0.17
-2.50,1.63,17.59,-1.89,0.22,-0.07
-2.04,1.10,17.68,-1.44,0.12,-0.09
-2.22,0.68,17.63,-0.93,0.06,-0.24
-2.86,0.60,17.36,-0.40,0.03,-0.42
-3.51,0.88,16.87,0.10,-0.01,-0.56
-3.83,1.32,16.07,0.53,-0.06,-0.65
-3.79,1.68,15.05,0.88,-0.12,-0.71
-3.68,1.86,14.02,1.15,-0.19,-0.77
-3.68,1.98,13.18,1.38,-0.29,-0.82
-3.81,2.12,12.47,1.59,-0.39,-0.84
-4.04,2.28,11.76,1.80,-0.49,-0.85
-4.31,2.50,11.02,1.99,-0.56,-0.84
-4.58,2.72,10.35,2.15,-0.62,-0.82
-4.76,2.95,9.82,2.27,-0.68,-0.78
-4.61,3.23,9.34,2.32,-0.73,-0.70
-4.16,3.48,9.16,2.34,-0.75,-0.58
-3.64,3.62,9.17,2.39,-0.71,-0.48
-3.32,3.69,9.38,2.51,-0.65,-0.44
-3.16,3.76,9.36,2.66,-0.58,-0.45
-3.18,3.91,9.64,2.82,-0.59,-0.48
-3.19,4.13,9.58,2.98,-0.67,-0.54
-3.22,4.41,9.08,3.13,-0.76,-0.61
-3.40,4.69,8.40,3.25,-0.83,-0.71
-3.84,4.93,7.49,3.36,-0.83,-0.81
-4.54,5.19,6.49,3.44,-0.76,-0.90
-5.43,5.50,5.67,3.51,-0.65,-0.92
-6.37,5.83,5.07,3.54,-0.56,-0.87
-7.27,6.14,4.35,3.53,-0.48,-0.73
-8.15,6.44,3.61,3.48,-0.36,-0.50
-9.00,6.74,2.92,3.40,-0.24,-0.21
-9.79,7.06,1.99,3.27,-0.16,0.14
-10.53,7.37,0.89,3.05,-0.15,0.52
-11.09,7.66,-0.11,2.69,-0.24,0.94
-11.28,7.81,-0.93,2.23,-0.39,1.39
-11.11,7.70,-1.27,1.70,-0.56,1.84
-10.72,7.37,-1.44,1.23,-0.62,2.29
-10.07,6.78,-1.07,0.88,-0.57,2.70
-8.93,6.00,-0.94,0.77,-0.34,3.03
-8.04,5.63,-1.40,0.61,-0.01,3.31
-7.44,5.60,-1.61,0.37,0.30,3.61
-6.81,5.55,-1.59,0.07,0.55,3.92
-6.09,5.19,-1.52,-0.24,0.78,4.20
-5.34,4.58,-1.28,-0.55,0.97,4.43
-4.75,3.95,-0.82,-0.86,1.13,4.61
-4.22,3.41,-0.12,-1.16,1.21,4.75
-3.67,2.95,0.79,-1.43,1.21,4.87
-2.99,2.52,1.69,-1.67,1.11,4.98
-2.05,2.04,2.71,-1.84,0.93,5.08
-1.52,1.77,3.82,-1.93,0.74,5.25
-0.45,1.17,5.06,-1.93,0.49,5.49
1.41,0.27,6.11,-1.88,0.17,5.66
4.26,-0.86,6.77,-1.84,-0.20,5.59
7.81,-1.94,7.55,-1.80,-0.63,5.23
11.77,-2.95,8.94,-1.61,-1.01,4.53
14.56,-3.33,9.81,-1.11,-1.11,3.63
16.08,-3.14,9.84,-0.51,-1.05,2.73
16.91,-2.64,9.45,0.03,-0.94,1.86
16.84,-1.91,8.91,0.50,-0.81,0.99
15.91,-1.19,8.11,0.87,-0.69,0.14
14.55,-0.60,7.18,1.12,-0.63,-0.64
13.09,-0.05,6.20,1.27,-0.65,-1.35
11.67,0.48,5.17,1.34,-0.72,-1.98
10.33,1.00,4.21,1.35,-0.79,-2.53
8.92,1.52,3.45,1.33,-0.82,-2.99
7.39,2.12,2.75,1.27,-0.87,-3.35
5.83,2.81,2.18,1.14,-0.92,-3.61
4.36,3.54,1.78,0.98,-0.96,-3.78
3.03,4.25,1.49,0.79,-0.98,-3.87
1.85,4.92,1.18,0.60,-0.96,-3.90
0.78,5.57,0.79,0.45,-0.87,-3.87
-0.09,6.22,0.42,0.33,-0.72,-3.82
-1.17,6.94,0.20,0.26,-0.48,-3.75
-2.68,7.72,0.01,0.26,-0.17,-3.62
-4.39,8.46,-0.03,0.27,0.16,-3.42
-6.24,9.20,-0.00,0.26,0.47,-3.14
-8.17,9.99,-0.02,0.21,0.75,-2.77
-9.97,10.76,-0.30,0.11,1.01,-2.28
-11.38,11.45,-0.74,-0.05,1.22,-1.65
-12.23,12.03,-0.94,-0.28,1.40,-0.89
-11.95,12.14,-0.93,-0.55,1.57,-0.05
-10.61,11.66,-0.68,-0.81,1.76,0.74
-8.99,10.88,-0.36,-1.03,2.03,1.40
-7.57,10.02,-0.04,-1.23,2.34,1.93
-6.35,9.14,0.40,-1.42,2.66,2.37
-5.29,8.23,0.97,-1.58,2.96,2.71
-4.40,7.34,1.80,-1.73,3.22,2.99
-3.66,6.50,3.22,-1.87,3.34,3.21
-2.81,5.61,5.21,-2.02,3.25,3.42
-1.74,4.70,7.22,-2.12,2.97,3.67
0.03,3.63,8.68,-2.17,2.62,3.89
2.52,2.62,9.96,-2.17,2.21,4.00
6.03,1.45,11.11,-2.18,1.66,3.92
9.85,0.29,12.38,-2.15,1.01,3.49
12.66,-0.45,14.25,-1.86,0.50,2.70
14.09,-0.67,15.18,-1.25,0.28,1.81
14.72,-0.50,15.16,-0.61,0.20,0.96
14.64,0.14,14.74,-0.06,0.18,0.12
13.63,0.96,14.08,0.41,0.13,-0.70
11.97,1.58,13.21,0.78,-0.00,-1.43
10.22,1.93,12.22,1.07,-0.23,-2.09
8.11,2.38,11.06,1.28,-0.52,-2.65
5.94,2.90,9.69,1.40,-0.87,-3.07
3.98,3.46,8.20,1.43,-1.23,-3.36
2.26,4.09,6.74,1.38,-1.56,-3.55
0.74,4.75,5.69,1.27,-1.84,-3.65
-0.70,5.38,5.06,1.15,-2.03,-3.68
-2.19,5.99,4.77,1.09,-2.11,-3.64
-3.46,6.51,4.29,1.10,-2.07,-3.51
-4.20,6.97,3.36,1.10,-1.94,-3.31
-4.56,7.45,2.47,1.10,-1.71,-3.08
-5.03,7.98,1.74,1.18,-1.30,-2.84
-6.00,8.69,1.13,1.35,-0.72,-2.54
-7.23,9.62,0.61,1.49,-0.09,-2.15
-8.34,10.69,0.08,1.51,0.40,-1.66
-8.96,11.54,-0.45,1.37,0.68,-1.11
-9.02,11.97,-0.97,1.12,0.81,-0.55
-8.70,12.01,-1.41,0.81,0.88,0.01
-8.15,11.73,-1.53,0.47,0.96,0.56
-7.37,11.23,-1.36,0.15,1.08,1.08
-6.41,10.62,-0.99,-0.16,1.25,1.53
-5.37,9.98,-0.50,-0.46,1.44,1.93
-4.33,9.31,0.16,-0.75,1.61,2.25
-3.34,8.64,1.04,-1.03,1.72,2.52
-2.39,8.00,2.30,-1.29,1.72,2.74
-1.36,7.36,3.68,-1.54,1.53,2.92
-0.17,6.77,5.03,-1.78,1.17,3.05
1.35,6.16,6.06,-1.96,0.70,3.12
3.20,5.54,6.79,-2.06,0.20,3.08
5.04,4.90,7.41,-2.04,-0.24,2.92
6.54,4.42,8.04,-1.88,-0.55,2.64
7.83,4.14,8.69,-1.64,-0.77,2.28
9.13,3.95,9.10,-1.35,-0.91,1.86
9.98,3.90,9.19,-1.05,-0.96,1.34
10.03,4.06,9.02,-0.75,-0.98,0.78
aX,aY,aZ,gX,gY,gZ
10.81,1.46,6.43,-0.53,-0.34,2.32
10.97,1.87,6.27,-0.22,-0.05,1.84
10.95,2.39,6.06,0.02,0.25,1.34
10.61,2.81,5.80,0.21,0.49,0.87
9.92,3.12,5.60,0.34,0.66,0.44
8.98,3.55,5.35,0.41,0.75,0.07
8.09,4.05,5.10,0.42,0.74,-0.22
7.47,4.48,4.88,0.39,0.67,-0.44
7.02,4.85,4.71,0.33,0.58,-0.62
6.58,5.18,4.56,0.27,0.49,-0.75
6.56,5.43,4.40,0.18,0.39,-0.85
6.58,5.71,4.40,0.10,0.30,-0.95
6.57,6.00,4.66,0.02,0.22,-1.01
6.54,6.19,5.39,-0.06,0.10,-1.05
6.48,6.29,6.29,-0.10,-0.05,-1.11
6.34,6.50,6.94,-0.11,-0.22,-1.15
6.33,6.79,7.18,-0.11,-0.39,-1.13
6.55,7.05,7.20,-0.10,-0.53,-1.07
7.00,7.18,7.15,-0.08,-0.66,-1.04
7.58,7.13,7.08,-0.06,-0.74,-1.05
8.08,6.96,7.07,0.00,-0.74,-1.11
8.43,6.76,7.02,0.12,-0.63,-1.21
8.54,6.63,6.91,0.28,-0.42,-1.33
8.41,6.68,6.85,0.48,-0.18,-1.46
8.22,6.95,6.80,0.68,0.06,-1.57
8.15,7.28,6.69,0.86,0.27,-1.66
8.06,7.55,6.53,1.01,0.42,-1.76
7.76,7.73,6.21,1.13,0.51,-1.88
7.18,7.85,5.72,1.23,0.59,-2.01
6.41,7.94,5.22,1.27,0.59,-2.15
5.63,8.00,4.63,1.25,0.53,-2.26
4.90,7.97,4.14,1.17,0.46,-2.36
4.23,7.83,3.79,1.07,0.40,-2.43
3.61,7.52,3.38,0.98,0.39,-2.47
3.05,7.10,2.86,0.88,0.47,-2.49
2.43,6.54,2.54,0.80,0.61,-2.51
1.77,5.76,2.65,0.81,0.84,-2.55
1.04,4.89,2.74,0.95,1.14,-2.66
0.06,4.22,2.56,1.11,1.41,-2.79
-0.83,3.70,2.27,1.20,1.60,-2.88
-1.47,3.26,2.05,1.26,1.68,-2.98
-1.90,2.81,1.75,1.33,1.65,-3.09
-2.40,2.35,1.33,1.41,1.57,-3.22
-3.00,1.90,1.05,1.51,1.51,-3.33
-3.66,1.46,0.73,1.62,1.49,-3.42
-4.20,1.04,0.34,1.70,1.47,-3.51
-4.54,0.61,0.02,1.74,1.42,-3.60
-4.87,0.37,-0.38,1.73,1.32,-3.71
-5.27,0.34,-0.65,1.68,1.17,-3.80
-5.79,0.37,-0.85,1.62,1.02,-3.85
-6.45,0.31,-1.08,1.57,0.91,-3.85
-7.32,0.28,-1.24,1.52,0.83,-3.83
-8.72,0.52,-1.46,1.41,0.70,-3.75
-10.60,1.16,-1.55,1.24,0.52,-3.57
-12.50,2.19,-1.52,1.02,0.31,-3.28
-14.01,3.47,-1.75,0.80,0.13,-2.88
-14.78,4.72,-2.21,0.64,0.03,-2.39
-14.59,5.61,-2.53,0.56,0.09,-1.86
-13.80,6.12,-2.62,0.58,0.27,-1.35
-13.19,6.49,-2.64,0.60,0.48,-0.85
-13.27,6.95,-2.64,0.57,0.62,-0.36
-13.61,7.47,-2.49,0.49,0.69,0.13
-13.68,7.86,-2.45,0.37,0.66,0.57
-13.31,7.97,-2.44,0.24,0.55,0.88
-12.77,8.16,-2.49,0.13,0.43,1.03
-12.31,8.43,-2.52,0.05,0.35,1.10
-12.14,8.67,-2.36,0.01,0.31,1.14
-12.38,8.88,-2.22,-0.02,0.29,1.19
-12.79,9.00,-2.11,-0.04,0.26,1.29
-13.10,8.96,-2.11,-0.07,0.21,1.44
-13.18,8.79,-2.23,-0.11,0.15,1.61
-13.02,8.54,-2.39,-0.14,0.12,1.79
-12.74,8.28,-2.55,-0.15,0.11,1.98
-12.44,8.08,-2.80,-0.16,0.14,2.17
-12.07,7.94,-2.98,-0.19,0.16,2.36
-11.68,7.86,-3.13,-0.23,0.18,2.54
-11.16,7.76,-3.23,-0.28,0.18,2.72
-10.38,7.54,-3.37,-0.35,0.13,2.88
-9.42,7.18,-3.51,-0.42,0.11,3.01
-8.66,6.85,-3.64,-0.48,0.12,3.11
-8.23,6.60,-3.79,-0.51,0.19,3.22
-7.94,6.39,-3.93,-0.55,0.27,3.34
-7.52,6.11,-4.08,-0.60,0.33,3.45
-7.02,5.68,-4.17,-0.65,0.40,3.54
-6.52,5.20,-4.20,-0.70,0.49,3.59
-5.94,4.73,-4.30,-0.75,0.56,3.64
-5.25,4.22,-4.37,-0.83,0.62,3.68
-4.54,3.74,-4.40,-0.88,0.72,3.71
-3.96,3.39,-4.59,-0.92,0.86,3.71
-3.62,3.14,-4.71,-1.00,1.01,3.68
-3.40,2.90,-4.76,-1.12,1.14,3.63
-3.25,2.64,-4.66,-1.30,1.21,3.54
-3.21,2.37,-4.22,-1.53,1.18,3.43
-3.16,2.16,-3.51,-1.82,1.05,3.33
-2.92,2.02,-2.51,-2.17,0.80,3.29
-2.43,1.89,-1.20,-2.55,0.48,3.30
-1.76,1.67,0.36,-2.88,0.09,3.36
-0.93,1.30,2.08,-3.09,-0.32,3.38
-0.17,0.94,3.50,-3.12,-0.74,3.30
-0.15,1.09,4.48,-3.09,-1.25,3.26
-0.86,1.59,5.39,-3.00,-1.77,3.73
-0.06,1.35,5.86,-2.72,-2.07,4.30
1.41,1.17,5.56,-2.48,-2.35,4.78
3.66,0.65,5.23,-2.38,-2.61,5.16
6.97,-0.22,5.20,-2.32,-2.81,5.33
10.82,-1.26,5.13,-2.19,-2.77,5.18
13.81,-2.07,5.54,-1.83,-2.34,4.78
15.20,-2.33,6.03,-1.20,-1.55,4.26
15.41,-2.02,6.01,-0.55,-0.68,3.80
15.28,-1.51,6.09,-0.13,-0.03,3.41
15.14,-1.12,6.37,0.10,0.32,3.07
15.04,-1.02,6.70,0.20,0.46,2.75
15.01,-1.13,6.88,0.25,0.43,2.45
15.27,-1.38,6.78,0.26,0.31,2.15
15.67,-1.64,6.53,0.24,0.16,1.84
15.78,-1.78,6.18,0.23,0.01,1.48
15.63,-1.82,5.69,0.20,-0.14,1.12
15.53,-1.85,5.20,0.14,-0.31,0.76
15.64,-1.92,4.73,0.06,-0.45,0.38
15.76,-1.99,4.34,0.01,-0.51,-0.03
15.58,-1.95,3.99,-0.02,-0.49,-0.46
14.89,-1.70,3.75,-0.08,-0.48,-0.87
14.08,-1.55,3.87,-0.13,-0.49,-1.24
13.34,-1.46,4.04,-0.16,-0.56,-1.59
12.60,-1.37,4.26,-0.17,-0.66,-1.92
11.88,-1.25,4.28,-0.16,-0.77,-2.23
11.24,-1.09,4.13,-0.14,-0.87,-2.51
10.64,-0.90,3.91,-0.13,-0.97,-2.77
10.09,-0.69,3.57,-0.13,-1.05,-3.01
9.52,-0.47,3.21,-0.13,-1.08,-3.25
8.89,-0.22,2.77,-0.12,-1.07,-3.48
8.22,-0.01,2.41,-0.10,-1.01,-3.69
7.55,0.25,2.10,-0.09,-0.93,-3.91
6.85,0.62,1.87,-0.09,-0.83,-4.10
6.14,1.01,1.55,-0.09,-0.70,-4.26
5.37,1.35,1.27,-0.12,-0.59,-4.41
4.48,1.71,1.03,-0.14,-0.51,-4.52
3.64,2.07,0.89,-0.09,-0.37,-4.56
3.09,2.25,0.74,0.06,-0.12,-4.55
2.74,2.32,0.37,0.25,0.18,-4.53
2.27,2.39,0.15,0.41,0.46,-4.55
1.44,2.59,-0.01,0.53,0.64,-4.58
0.31,2.97,-0.05,0.60,0.72,-4.60
-0.87,3.49,-0.01,0.62,0.68,-4.58
-1.90,4.09,0.04,0.60,0.60,-4.54
-2.66,4.62,0.18,0.57,0.55,-4.49
-3.28,5.01,0.25,0.55,0.49,-4.42
-4.02,5.32,0.38,0.53,0.34,-4.33
-4.91,5.71,0.09,0.49,0.09,-4.20
-5.85,6.30,-0.27,0.43,-0.12,-4.02
-6.73,7.09,-0.54,0.39,-0.23,-3.81
-7.50,7.98,-0.64,0.36,-0.22,-3.59
-7.98,8.77,-0.72,0.32,-0.17,-3.37
-8.12,9.35,-0.83,0.26,-0.07,-3.18
-8.16,9.86,-0.86,0.23,0.11,-3.02
-8.46,10.43,-0.86,0.21,0.28,-2.83
-8.93,11.01,-0.94,0.20,0.39,-2.59
-9.20,11.56,-1.10,0.17,0.41,-2.29
-9.05,11.93,-1.24,0.13,0.38,-1.98
-8.86,12.28,-1.28,0.11,0.37,-1.73
-8.90,12.69,-1.26,0.11,0.39,-1.49
-8.96,12.97,-1.22,0.11,0.41,-1.23
-8.96,13.14,-1.19,0.09,0.39,-0.98
-9.09,13.28,-1.17,0.05,0.35,-0.75
-9.40,13.40,-1.17,-0.00,0.30,-0.53
-9.68,13.37,-1.22,-0.06,0.24,-0.31
-9.74,13.16,-1.30,-0.11,0.16,-0.09
-9.71,12.90,-1.30,-0.15,0.09,0.14
-9.67,12.72,-1.19,-0.18,0.05,0.38
-9.70,12.57,-1.07,-0.19,0.02,0.65
-9.77,12.37,-0.94,-0.21,-0.02,0.91
-9.79,12.11,-0.79,-0.24,-0.08,1.16
-9.70,11.79,-0.67,-0.27,-0.16,1.40
-9.57,11.40,-0.55,-0.30,-0.26,1.62
-9.43,10.98,-0.48,-0.31,-0.35,1.85
-9.27,10.55,-0.41,-0.31,-0.40,2.08
-8.96,10.11,-0.35,-0.29,-0.43,2.31
-8.53,9.66,-0.28,-0.26,-0.44,2.52
-7.98,9.21,-0.26,-0.22,-0.43,2.72
-7.37,8.79,-0.25,-0.19,-0.40,2.88
-6.73,8.43,-0.34,-0.15,-0.36,3.03
-6.11,8.11,-0.44,-0.13,-0.28,3.15
-5.55,7.75,-0.45,-0.11,-0.17,3.27
-5.05,7.37,-0.39,-0.10,-0.08,3.39
-4.58,7.02,-0.28,-0.10,0.01,3.52
-4.07,6.69,-0.13,-0.12,0.08,3.65
-3.51,6.35,-0.01,-0.15,0.13,3.78
-2.93,5.93,0.07,-0.18,0.17,3.90
-2.39,5.42,0.09,-0.22,0.19,4.02
-1.82,4.89,0.08,-0.27,0.22,4.11
-1.24,4.40,0.09,-0.32,0.24,4.19
-0.57,3.91,-0.01,-0.37,0.32,4.24
-0.05,3.52,-0.12,-0.42,0.44,4.28
0.37,3.11,-0.12,-0.48,0.62,4.33
0.72,2.67,-0.05,-0.53,0.81,4.39
1.11,2.22,0.11,-0.62,0.95,4.45
1.59,1.72,0.47,-0.73,1.04,4.52
2.13,1.22,0.93,-0.86,1.07,4.59
2.73,0.68,1.39,-0.99,1.06,4.64
3.39,0.06,1.67,-1.10,1.06,4.66
aX,aY,aZ,gX,gY,gZ
-10.64,10.52,0.34,-0.11,0.09,0.39
-10.64,10.33,0.35,-0.12,0.10,0.53
-10.82,10.11,0.39,-0.10,0.13,0.68
-11.12,9.90,0.40,-0.06,0.19,0.85
-11.43,9.71,0.35,-0.02,0.25,1.03
-11.59,9.56,0.28,0.01,0.29,1.23
-11.68,9.43,0.15,0.03,0.29,1.43
-11.76,9.29,0.01,0.04,0.29,1.64
-11.79,9.16,-0.07,0.03,0.27,1.86
-11.78,8.99,-0.12,0.02,0.24,2.09
-11.72,8.79,-0.22,-0.01,0.22,2.32
-11.38,8.64,-0.39,-0.05,0.17,2.54
-10.76,8.51,-0.51,-0.11,0.10,2.75
-10.21,8.30,-0.55,-0.16,0.06,2.93
-9.83,7.98,-0.51,-0.19,0.04,3.09
-9.45,7.63,-0.51,-0.21,0.01,3.24
-8.84,7.32,-0.58,-0.26,-0.05,3.39
-7.99,7.00,-0.65,-0.30,-0.14,3.53
-7.01,6.68,-0.76,-0.35,-0.24,3.64
-6.15,6.41,-0.72,-0.39,-0.31,3.71
-5.58,6.06,-0.62,-0.39,-0.33,3.77
-5.25,5.61,-0.56,-0.38,-0.31,3.83
-4.96,5.12,-0.65,-0.41,-0.30,3.91
-4.61,4.60,-0.62,-0.47,-0.30,4.02
-4.22,4.04,-0.53,-0.52,-0.27,4.16
-3.79,3.48,-0.59,-0.57,-0.21,4.30
-3.25,2.85,-0.69,-0.63,-0.16,4.45
-2.62,2.22,-0.79,-0.71,-0.07,4.58
-1.98,1.60,-0.79,-0.79,0.03,4.68
-1.41,0.96,-0.75,-0.87,0.19,4.75
-1.00,0.37,-0.62,-0.93,0.39,4.79
-0.75,-0.23,-0.35,-1.00,0.58,4.82
-0.59,-0.82,0.10,-1.08,0.74,4.85
-0.30,-1.35,0.71,-1.19,0.81,4.91
0.33,-1.82,1.28,-1.31,0.84,4.98
1.29,-2.20,1.93,-1.41,0.88,5.02
2.44,-2.50,2.73,-1.46,0.88,4.98
3.73,-2.76,3.36,-1.51,0.86,4.86
5.11,-3.05,3.79,-1.55,0.83,4.66
6.68,-3.31,4.19,-1.60,0.81,4.42
8.57,-3.58,5.17,-1.59,0.79,4.14
10.92,-4.00,6.66,-1.43,0.79,3.77
13.23,-4.26,8.17,-1.13,0.82,3.28
14.90,-4.16,9.37,-0.72,0.91,2.79
16.14,-3.85,10.10,-0.34,0.98,2.35
17.65,-3.63,10.59,-0.05,0.98,1.87
18.93,-3.34,11.02,0.17,0.95,1.25
19.38,-2.88,11.37,0.42,0.93,0.62
18.75,-2.53,11.85,0.74,0.94,0.07
16.77,-1.25,11.60,1.15,1.15,0.24
17.16,-1.03,11.14,1.44,1.20,0.35
17.08,-0.45,10.36,1.51,1.00,-0.03
15.50,0.35,9.50,1.44,0.72,-0.40
13.75,0.83,8.63,1.25,0.38,-0.62
12.59,1.00,7.86,0.99,-0.01,-0.81
11.75,1.13,7.25,0.71,-0.36,-0.99
11.14,1.11,7.03,0.50,-0.63,-1.17
10.50,1.02,6.82,0.35,-0.87,-1.38
9.74,0.91,6.63,0.22,-1.11,-1.58
9.06,0.70,6.42,0.07,-1.39,-1.75
8.40,0.72,5.91,-0.18,-1.73,-1.90
7.75,0.84,5.83,-0.52,-2.15,-1.99
7.67,0.68,5.86,-0.77,-2.53,-2.02
8.68,-0.28,6.55,-0.78,-2.73,-2.12
9.74,-1.31,6.18,-0.48,-2.59,-2.40
9.67,-1.64,5.72,-0.21,-2.38,-2.77
9.17,-1.43,5.34,0.02,-2.16,-3.13
8.68,-1.16,5.05,0.20,-1.96,-3.47
8.09,-0.89,4.72,0.39,-1.71,-3.78
7.40,-0.52,4.17,0.60,-1.37,-4.03
6.60,-0.03,3.69,0.82,-0.95,-4.21
5.68,0.60,3.12,1.04,-0.54,-4.31
4.79,1.25,2.45,1.22,-0.16,-4.36
4.08,1.75,1.72,1.37,0.20,-4.37
3.58,2.14,0.99,1.51,0.62,-4.37
3.04,2.52,0.57,1.66,1.06,-4.34
2.15,3.08,0.47,1.78,1.32,-4.29
1.00,3.84,0.37,1.79,1.29,-4.22
-0.02,4.69,0.23,1.69,1.01,-4.15
-0.48,5.39,-0.00,1.50,0.62,-4.06
-0.50,5.77,-0.38,1.31,0.32,-3.99
-0.40,5.86,-0.93,1.15,0.22,-3.94
-0.31,5.76,-1.46,1.04,0.35,-3.93
-0.62,5.75,-1.75,1.00,0.59,-3.95
-1.64,5.91,-1.65,0.91,0.63,-3.98
-3.18,6.11,-1.34,0.75,0.36,-3.98
-4.68,6.29,-1.56,0.52,-0.09,-3.95
-5.43,6.12,-1.96,0.27,-0.54,-3.89
-5.43,5.80,-2.52,0.06,-0.80,-3.85
-5.05,5.50,-2.82,-0.10,-0.84,-3.82
-4.58,5.19,-3.09,-0.17,-0.66,-3.76
-4.36,4.74,-3.06,-0.15,-0.35,-3.73
-5.11,4.39,-2.86,-0.12,-0.11,-3.72
-6.53,4.25,-2.54,-0.14,-0.05,-3.68
-7.46,4.07,-2.39,-0.22,-0.09,-3.63
-7.62,3.78,-2.49,-0.29,-0.11,-3.62
-7.55,3.40,-2.54,-0.31,-0.02,-3.65
-7.92,3.00,-2.41,-0.18,0.29,-3.68
-9.13,2.85,-2.02,0.08,0.71,-3.63
-11.18,3.14,-1.36,0.31,0.92,-3.46
-13.40,3.84,-0.96,0.43,0.83,-3.18
-14.69,4.57,-1.01,0.44,0.55,-2.84
-14.61,5.09,-1.50,0.39,0.26,-2.54
-13.70,5.30,-2.19,0.36,0.14,-2.30
-12.82,5.37,-2.73,0.39,0.29,-2.11
-12.46,5.55,-2.94,0.47,0.61,-1.92
-12.65,5.88,-2.78,0.54,0.89,-1.70
-13.22,6.30,-2.73,0.54,0.96,-1.45
-13.63,6.65,-2.80,0.46,0.83,-1.18
-13.63,6.88,-2.91,0.35,0.60,-0.93
-13.35,7.00,-3.00,0.22,0.39,-0.72
-13.04,7.04,-2.97,0.10,0.25,-0.55
-12.95,7.03,-2.98,-0.01,0.18,-0.41
-13.08,7.03,-2.94,-0.10,0.15,-0.27
-13.41,7.08,-2.86,-0.17,0.14,-0.08
-13.91,7.19,-2.82,-0.24,0.08,0.15
-14.40,7.27,-2.87,-0.30,-0.00,0.41
-14.73,7.19,-3.00,-0.35,-0.07,0.68
-14.80,7.04,-3.10,-0.41,-0.10,0.93
-14.81,6.99,-3.18,-0.45,-0.07,1.17
-14.85,7.02,-3.11,-0.48,-0.02,1.41
-15.04,7.09,-3.11,-0.54,-0.01,1.68
-15.26,7.04,-3.11,-0.61,-0.02,1.99
-15.28,6.85,-3.03,-0.69,-0.02,2.31
-15.03,6.63,-2.88,-0.78,-0.02,2.63
-14.57,6.46,-2.53,-0.86,-0.01,2.91
-14.03,6.39,-2.11,-0.93,-0.03,3.15
-13.41,6.34,-1.72,-0.98,-0.08,3.35
-12.66,6.32,-1.29,-1.02,-0.18,3.51
-11.84,6.35,-1.02,-1.04,-0.31,3.65
-10.86,6.41,-0.86,-1.03,-0.44,3.77
-9.71,6.43,-0.71,-0.98,-0.53,3.85
-8.58,6.39,-0.56,-0.90,-0.56,3.88
-7.65,6.36,-0.55,-0.79,-0.57,3.87
-6.94,6.32,-0.64,-0.67,-0.52,3.84
-6.35,6.27,-0.86,-0.56,-0.42,3.80
-5.82,6.17,-1.13,-0.45,-0.28,3.77
-5.37,5.98,-1.30,-0.35,-0.11,3.73
-5.17,5.69,-1.42,-0.27,0.07,3.71
-5.24,5.30,-1.44,-0.22,0.23,3.72
-5.39,4.83,-1.38,-0.23,0.31,3.78
-5.46,4.26,-1.45,-0.29,0.32,3.86
-5.20,3.66,-1.60,-0.37,0.31,3.94
-4.57,3.11,-1.77,-0.49,0.31,4.01
-3.73,2.68,-1.80,-0.60,0.36,4.07
-2.84,2.40,-1.77,-0.69,0.44,4.13
-1.25,2.02,-1.76,-0.77,0.56,4.12
-0.11,1.80,-1.68,-0.84,0.72,3.97
0.32,1.77,-1.50,-0.91,0.88,3.81
-0.19,2.15,-1.46,-1.05,1.00,3.80
-0.33,2.06,-0.83,-1.29,0.98,4.06
0.18,1.88,-0.17,-1.47,0.88,4.23
1.02,1.60,0.27,-1.64,0.76,4.33
2.09,1.19,0.72,-1.77,0.68,4.36
3.22,0.84,1.23,-1.85,0.69,4.35
4.35,0.51,1.82,-1.90,0.76,4.27
5.22,0.26,2.50,-1.91,0.84,4.13
5.75,-0.02,2.94,-1.91,0.90,3.95
5.88,-0.31,3.46,-1.90,0.94,3.76
5.81,-0.59,4.19,-1.88,0.94,3.61
5.80,-0.85,4.94,-1.87,0.87,3.50
6.07,-1.15,5.68,-1.87,0.73,3.43
6.67,-1.57,6.27,-1.85,0.59,3.34
7.41,-2.01,6.53,-1.78,0.54,3.21
8.11,-2.37,6.64,-1.66,0.60,3.03
8.69,-2.55,6.73,-1.51,0.75,2.84
9.07,-2.54,6.88,-1.36,0.95,2.64
9.16,-2.44,7.31,-1.24,1.09,2.45
9.16,-2.48,8.05,-1.17,1.10,2.30
9.40,-2.69,8.83,-1.14,0.96,2.16
9.79,-2.75,9.39,-1.14,0.75,2.03
10.41,-3.00,9.78,-1.13,0.50,1.91
11.20,-3.36,9.95,-1.08,0.28,1.75
12.17,-3.72,10.03,-1.00,0.14,1.56
13.15,-4.00,10.22,-0.89,0.07,1.32
13.94,-4.21,10.43,-0.71,0.07,1.03
14.29,-4.20,10.57,-0.51,0.12,0.70
14.13,-3.95,10.60,-0.31,0.15,0.38
13.73,-3.68,10.63,-0.15,0.11,0.09
13.43,-3.54,10.62,-0.04,-0.01,-0.19
13.31,-3.47,10.50,0.06,-0.14,-0.47
13.25,-3.38,10.20,0.19,-0.22,-0.75
13.09,-3.24,9.74,0.33,-0.22,-1.04
12.73,-3.08,9.30,0.49,-0.16,-1.32
12.14,-2.89,8.95,0.66,-0.09,-1.58
11.43,-2.72,8.67,0.81,-0.02,-1.80
10.66,-2.56,8.44,0.95,0.01,-2.00
9.86,-2.44,8.26,1.07,0.00,-2.17
9.05,-2.35,7.99,1.19,-0.05,-2.31
8.40,-2.21,7.61,1.27,-0.14,-2.40
8.13,-2.01,7.23,1.32,-0.22,-2.48
8.03,-1.73,6.87,1.37,-0.26,-2.56
7.83,-1.39,6.50,1.44,-0.25,-2.66
7.49,-1.04,6.07,1.52,-0.19,-2.76
7.05,-0.72,5.85,1.61,-0.12,-2.83
6.67,-0.39,5.64,1.71,-0.03,-2.87
6.34,-0.07,5.44,1.78,0.03,-2.91
6.02,0.23,5.22,1.84,0.09,-2.95
5.70,0.50,4.87,1.89,0.14,-3.00
5.39,0.71,4.41,1.93,0.22,-3.05
aX,aY,aZ,gX,gY,gZ
-12.58,5.59,-0.41,-0.59,-0.46,-2.44
-12.69,6.11,-0.03,-0.47,-0.31,-2.25
-12.81,6.72,0.30,-0.31,-0.14,-2.10
-13.00,7.38,0.61,-0.12,0.04,-2.00
-13.31,7.91,0.97,0.09,0.25,-1.94
-13.79,8.19,1.15,0.32,0.46,-1.86
-14.28,8.18,0.97,0.50,0.60,-1.86
-15.17,8.31,0.59,0.63,0.69,-1.80
-15.62,8.52,0.26,0.86,0.86,-1.72
-16.36,9.14,-0.48,0.87,0.88,-1.56
-17.05,9.27,-0.39,0.78,0.73,-1.33
-17.52,9.20,-0.52,0.80,0.71,-1.09
-17.72,9.08,-0.86,0.81,0.65,-0.86
-17.95,9.06,-1.27,0.77,0.53,-0.63
-18.05,8.93,-1.66,0.69,0.38,-0.38
-17.84,8.58,-2.00,0.58,0.27,-0.09
-17.41,8.10,-2.31,0.48,0.22,0.20
-17.01,7.56,-2.62,0.41,0.26,0.50
-16.62,6.98,-2.86,0.37,0.34,0.77
-16.24,6.48,-3.05,0.32,0.41,1.02
-15.95,6.07,-3.23,0.26,0.42,1.24
-15.66,5.65,-3.46,0.16,0.36,1.46
-15.16,5.12,-3.65,0.05,0.27,1.66
-14.55,4.58,-3.75,-0.07,0.21,1.82
-13.90,4.09,-3.72,-0.18,0.18,1.96
-13.27,3.72,-3.62,-0.27,0.17,2.07
-12.72,3.48,-3.53,-0.36,0.18,2.15
-12.23,3.24,-3.46,-0.44,0.19,2.22
-11.79,2.95,-3.37,-0.51,0.18,2.26
-11.32,2.65,-3.22,-0.59,0.17,2.29
-10.79,2.42,-3.10,-0.66,0.15,2.30
-10.22,2.32,-2.90,-0.72,0.15,2.31
-9.60,2.30,-2.72,-0.77,0.17,2.31
-9.01,2.30,-2.56,-0.81,0.21,2.31
-8.57,2.30,-2.35,-0.81,0.30,2.31
-8.32,2.32,-2.23,-0.81,0.38,2.33
-8.18,2.38,-2.09,-0.80,0.47,2.37
-7.92,2.53,-1.92,-0.80,0.54,2.42
-7.55,2.76,-1.76,-0.79,0.61,2.46
-7.19,3.06,-1.67,-0.79,0.68,2.49
-6.89,3.40,-1.60,-0.78,0.74,2.50
-6.64,3.75,-1.50,-0.79,0.80,2.50
-6.37,4.06,-1.29,-0.80,0.86,2.49
-6.12,4.32,-1.08,-0.82,0.90,2.46
-5.95,4.53,-0.91,-0.84,0.95,2.43
-5.83,4.67,-0.72,-0.85,0.99,2.39
-5.70,4.82,-0.59,-0.84,1.04,2.37
-5.49,4.96,-0.38,-0.81,1.10,2.37
-5.30,5.21,-0.19,-0.73,1.19,2.39
-5.03,5.22,-0.15,-0.62,1.32,2.42
-4.68,5.07,-0.15,-0.51,1.47,2.44
-4.24,4.89,-0.21,-0.38,1.66,2.42
-3.71,4.76,-0.32,-0.23,1.90,2.36
-3.16,4.65,-0.46,-0.09,2.17,2.29
-2.69,4.56,-0.63,0.06,2.48,2.22
-2.34,4.53,-0.85,0.17,2.79,2.19
-2.00,4.55,-1.08,0.19,3.00,2.19
-1.51,4.42,-1.20,0.10,3.06,2.12
-0.89,4.11,-1.26,-0.11,2.91,1.90
-0.39,3.77,-1.22,-0.40,2.57,1.51
-0.20,3.75,-1.02,-0.72,2.17,1.08
-0.43,4.15,-0.61,-0.99,1.84,0.78
-0.95,4.70,-0.08,-1.16,1.65,0.68
-1.53,5.12,0.40,-1.27,1.53,0.74
-2.04,5.28,0.83,-1.38,1.35,0.87
-2.28,5.37,0.97,-1.53,1.08,0.96
-2.29,5.39,0.90,-1.72,0.74,0.99
-2.21,5.32,0.67,-1.87,0.49,0.97
-2.13,5.24,0.25,-1.97,0.37,0.90
-2.14,5.23,-0.07,-2.08,0.35,0.82
-2.23,5.26,0.40,-2.24,0.28,0.78
-2.27,5.18,1.15,-2.45,0.16,0.79
-2.27,4.98,2.02,-2.65,-0.02,0.88
-2.30,4.85,2.51,-2.78,-0.13,1.03
-2.27,4.96,2.94,-2.88,-0.17,1.24
-2.05,5.08,3.51,-2.96,-0.23,1.47
-1.66,4.98,4.36,-3.04,-0.33,1.66
-1.11,4.62,5.20,-3.12,-0.47,1.80
-0.45,4.20,5.88,-3.15,-0.55,1.93
0.21,4.03,6.20,-3.13,-0.54,2.06
0.69,4.21,6.54,-3.07,-0.46,2.19
1.04,4.41,7.52,-3.05,-0.46,2.31
1.63,4.22,8.58,-3.07,-0.62,2.44
2.48,3.71,9.48,-3.11,-0.87,2.55
3.47,3.07,10.09,-3.09,-1.07,2.60
4.39,2.60,10.38,-2.97,-1.17,2.58
4.94,2.48,10.70,-2.81,-1.17,2.62
6.07,2.03,11.50,-2.60,-1.08,2.88
7.68,1.44,12.16,-2.37,-1.02,2.91
8.78,0.99,12.74,-2.16,-1.04,2.83
9.63,0.53,13.04,-1.93,-1.06,2.69
10.31,0.21,13.07,-1.68,-1.08,2.51
11.02,-0.03,12.90,-1.44,-1.08,2.31
11.67,-0.25,12.84,-1.19,-1.07,2.08
12.48,-0.63,12.89,-0.96,-1.08,1.82
13.59,-1.24,12.88,-0.73,-1.08,1.51
14.53,-1.82,12.69,-0.46,-1.02,1.12
14.92,-2.13,12.25,-0.16,-0.88,0.70
14.85,-2.21,11.67,0.14,-0.68,0.29
14.43,-2.12,11.02,0.41,-0.49,-0.10
13.76,-1.95,10.41,0.63,-0.32,-0.44
12.96,-1.80,9.91,0.79,-0.22,-0.74
11.95,-1.64,9.45,0.91,-0.16,-1.00
10.92,-1.49,9.00,0.98,-0.16,-1.21
9.97,-1.29,8.59,1.01,-0.20,-1.38
9.28,-1.07,8.26,1.02,-0.27,-1.51
8.86,-0.90,7.99,1.01,-0.37,-1.62
8.49,-0.69,7.78,1.00,-0.47,-1.73
8.11,-0.43,7.58,0.99,-0.55,-1.84
7.77,-0.16,7.44,0.98,-0.63,-1.94
7.50,0.06,7.28,0.98,-0.68,-2.05
7.12,0.30,6.98,0.98,-0.71,-2.16
6.69,0.51,6.67,0.98,-0.70,-2.26
6.24,0.74,6.34,0.97,-0.68,-2.36
5.79,0.99,6.08,0.96,-0.66,-2.44
5.36,1.28,5.85,0.94,-0.65,-2.50
4.90,1.58,5.61,0.91,-0.66,-2.57
4.39,1.90,5.39,0.86,-0.71,-2.62
3.92,2.15,5.22,0.80,-0.75,-2.65
3.54,2.36,5.12,0.76,-0.81,-2.67
3.24,2.55,5.00,0.70,-0.90,-2.70
2.95,2.77,4.88,0.65,-0.98,-2.74
2.71,2.95,4.64,0.60,-1.02,-2.79
2.51,3.05,4.32,0.59,-0.98,-2.84
2.33,3.06,3.95,0.61,-0.84,-2.91
2.17,3.01,3.53,0.69,-0.57,-2.98
1.92,3.02,3.23,0.83,-0.22,-3.06
1.33,3.20,3.12,0.98,0.10,-3.15
0.33,3.51,3.03,1.10,0.21,-3.22
-0.72,3.85,2.78,1.13,0.15,-3.27
-1.39,4.07,2.46,1.11,0.04,-3.29
-1.58,4.16,2.00,1.10,-0.02,-3.29
-1.52,4.25,1.42,1.12,0.06,-3.30
-1.54,4.35,0.95,1.19,0.27,-3.33
-1.94,4.47,0.70,1.29,0.50,-3.37
-2.81,4.63,0.51,1.35,0.60,-3.41
-3.90,4.77,0.56,1.35,0.52,-3.42
-4.98,4.95,0.39,1.26,0.21,-3.39
-5.67,5.04,0.16,1.10,-0.18,-3.32
-5.80,4.97,-0.10,0.94,-0.50,-3.25
-5.65,4.72,-0.42,0.81,-0.66,-3.19
-5.54,4.45,-0.79,0.75,-0.62,-3.15
-5.60,4.41,-1.21,0.75,-0.39,-3.11
-5.93,4.60,-1.21,0.80,-0.09,-3.07
-6.80,4.96,-0.99,0.82,0.04,-3.01
-7.89,5.32,-0.85,0.78,-0.03,-2.92
-8.77,5.62,-0.83,0.69,-0.25,-2.80
-9.26,5.89,-0.93,0.58,-0.50,-2.66
-9.34,6.07,-1.02,0.49,-0.64,-2.52
-9.24,6.18,-1.04,0.45,-0.63,-2.39
-9.22,6.31,-1.04,0.45,-0.47,-2.26
-9.34,6.57,-0.98,0.50,-0.25,-2.14
-9.75,7.05,-0.90,0.58,-0.05,-2.02
-10.30,7.58,-0.88,0.66,0.09,-1.89
-10.71,7.98,-0.92,0.74,0.18,-1.75
-10.85,8.23,-1.00,0.79,0.22,-1.63
-10.85,8.47,-1.14,0.83,0.25,-1.52
-10.92,8.81,-1.31,0.86,0.31,-1.41
-11.10,9.21,-1.53,0.89,0.36,-1.27
-11.34,9.54,-1.74,0.91,0.40,-1.12
-11.52,9.74,-1.95,0.90,0.39,-0.97
-11.58,9.85,-2.16,0.85,0.37,-0.82
-11.56,9.95,-2.33,0.77,0.33,-0.67
-11.56,10.00,-2.52,0.68,0.28,-0.53
-11.58,9.96,-2.69,0.58,0.24,-0.38
-11.58,9.89,-2.79,0.48,0.22,-0.23
-11.50,9.81,-2.85,0.39,0.20,-0.08
-11.35,9.75,-2.86,0.30,0.20,0.06
-11.15,9.66,-2.82,0.23,0.22,0.19
-10.97,9.55,-2.77,0.17,0.25,0.30
-10.79,9.41,-2.70,0.13,0.28,0.40
-10.56,9.25,-2.64,0.09,0.30,0.49
-10.30,9.13,-2.62,0.06,0.31,0.57
-10.10,9.05,-2.59,0.03,0.32,0.66
-9.95,8.94,-2.59,0.02,0.33,0.74
-9.85,8.77,-2.59,0.01,0.36,0.84
-9.78,8.58,-2.63,-0.00,0.38,0.93
-9.71,8.40,-2.72,-0.02,0.40,1.02
-9.61,8.25,-2.80,-0.05,0.42,1.10
-9.49,8.13,-2.91,-0.09,0.42,1.18
-9.35,7.96,-3.02,-0.12,0.43,1.27
-9.20,7.76,-3.11,-0.15,0.45,1.35
-9.10,7.58,-3.14,-0.19,0.49,1.44
-9.03,7.43,-3.16,-0.25,0.52,1.54
-8.96,7.28,-3.14,-0.31,0.54,1.65
-8.80,7.12,-3.06,-0.38,0.55,1.76
-8.58,6.97,-2.97,-0.46,0.55,1.86
-8.31,6.83,-2.85,-0.54,0.56,1.96
-8.06,6.67,-2.71,-0.61,0.55,2.05
-7.87,6.46,-2.54,-0.69,0.53,2.15
-7.63,6.24,-2.40,-0.76,0.49,2.24
-7.21,6.00,-2.24,-0.84,0.43,2.34
-6.62,5.78,-2.09,-0.92,0.36,2.41
-5.96,5.60,-1.91,-0.99,0.31,2.46
-5.34,5.48,-1.71,-1.07,0.25,2.50
-4.75,5.40,-1.57,-1.14,0.18,2.54
-4.11,5.33,-1.41,-1.21,0.12,2.57
-3.48,5.22,-1.30,-1.27,0.05,2.58
-2.89,5.11,-1.17,-1.32,-0.01,2.57
-2.38,5.00,-1.07,-1.38,-0.06,2.54
aX,aY,aZ,gX,gY,gZ
11.82,-1.91,9.79,0.22,-0.20,-0.25
11.46,-1.75,9.50,0.32,-0.21,-0.47
11.09,-1.62,9.27,0.41,-0.21,-0.70
10.64,-1.51,9.11,0.49,-0.25,-0.92
10.18,-1.40,8.95,0.56,-0.32,-1.12
9.87,-1.29,8.77,0.61,-0.42,-1.29
9.72,-1.18,8.57,0.67,-0.49,-1.45
9.55,-1.04,8.36,0.74,-0.53,-1.61
9.37,-0.94,8.20,0.82,-0.53,-1.76
9.19,-0.84,8.09,0.90,-0.51,-1.91
9.02,-0.74,7.96,0.98,-0.48,-2.06
8.75,-0.62,7.83,1.07,-0.43,-2.21
8.44,-0.47,7.66,1.16,-0.38,-2.36
8.13,-0.32,7.45,1.25,-0.32,-2.49
7.67,-0.11,7.20,1.34,-0.27,-2.63
7.07,0.13,6.90,1.42,-0.25,-2.75
6.51,0.35,6.59,1.48,-0.25,-2.85
6.04,0.56,6.28,1.53,-0.26,-2.93
5.63,0.76,5.88,1.57,-0.27,-3.01
5.18,0.96,5.41,1.62,-0.23,-3.08
4.60,1.22,4.92,1.67,-0.18,-3.14
3.96,1.48,4.41,1.71,-0.12,-3.17
3.39,1.76,3.96,1.73,-0.08,-3.17
2.96,2.05,3.59,1.73,-0.05,-3.15
2.62,2.33,3.30,1.71,-0.03,-3.13
2.33,2.60,2.95,1.69,0.01,-3.11
1.98,2.87,2.66,1.67,0.07,-3.09
1.40,3.18,2.34,1.63,0.06,-3.08
0.78,3.50,2.03,1.56,-0.01,-3.07
0.33,3.79,1.79,1.46,-0.13,-3.05
0.11,4.06,1.53,1.33,-0.26,-3.03
-0.01,4.27,1.24,1.21,-0.32,-3.02
-0.13,4.36,0.87,1.12,-0.27,-3.02
-0.32,4.42,0.54,1.07,-0.11,-3.04
-0.71,4.52,0.33,1.05,0.10,-3.04
-1.31,4.63,0.23,1.02,0.25,-3.06
-2.13,4.78,0.23,0.96,0.23,-3.08
-2.98,5.02,0.21,0.83,0.06,-3.08
-3.45,5.29,0.12,0.66,-0.18,-3.05
-3.51,5.51,-0.03,0.50,-0.37,-3.02
-3.39,5.61,-0.23,0.38,-0.44,-3.00
-3.39,5.58,-0.35,0.33,-0.39,-3.02
-3.73,5.52,-0.44,0.31,-0.27,-3.04
-4.31,5.50,-0.41,0.30,-0.16,-3.06
-4.96,5.63,-0.23,0.26,-0.13,-3.06
-5.66,5.85,-0.07,0.20,-0.17,-3.04
-6.21,6.04,0.10,0.13,-0.25,-3.01
-6.54,6.11,0.18,0.08,-0.28,-2.96
-6.68,6.11,0.25,0.07,-0.24,-2.91
-6.90,6.09,0.33,0.13,-0.13,-2.86
-7.45,6.12,0.37,0.22,0.00,-2.81
-8.19,6.23,0.38,0.34,0.16,-2.72
-8.92,6.47,0.43,0.45,0.29,-2.60
-9.55,6.81,0.40,0.53,0.37,-2.47
-10.16,7.18,0.34,0.57,0.38,-2.33
-10.67,7.55,0.15,0.58,0.37,-2.17
-11.02,7.94,-0.13,0.56,0.34,-1.99
-11.17,8.37,-0.34,0.52,0.32,-1.80
-11.26,8.85,-0.45,0.47,0.29,-1.61
-11.43,9.32,-0.53,0.40,0.25,-1.42
-11.61,9.70,-0.55,0.32,0.20,-1.23
-11.66,9.97,-0.52,0.23,0.14,-1.05
-11.61,10.13,-0.49,0.15,0.09,-0.87
-11.55,10.23,-0.46,0.09,0.07,-0.71
-11.59,10.28,-0.43,0.07,0.07,-0.56
-11.71,10.27,-0.36,0.06,0.09,-0.40
-11.82,10.19,-0.27,0.07,0.11,-0.24
-11.86,10.06,-0.22,0.08,0.12,-0.07
-11.82,9.91,-0.21,0.08,0.13,0.09
-11.76,9.76,-0.26,0.08,0.14,0.26
-11.65,9.57,-0.34,0.08,0.16,0.42
-11.49,9.37,-0.41,0.07,0.17,0.57
-11.28,9.21,-0.47,0.05,0.16,0.73
-11.03,9.07,-0.54,0.03,0.16,0.87
-10.77,8.91,-0.63,-0.00,0.16,1.00
-10.50,8.73,-0.74,-0.02,0.16,1.13
-10.24,8.58,-0.84,-0.04,0.18,1.24
-10.06,8.45,-0.88,-0.06,0.21,1.35
-10.00,8.33,-0.92,-0.08,0.24,1.46
-9.96,8.18,-0.93,-0.11,0.25,1.57
-9.92,8.02,-0.89,-0.15,0.24,1.69
-9.94,7.85,-0.80,-0.20,0.22,1.81
-9.95,7.70,-0.72,-0.26,0.18,1.95
-9.81,7.52,-0.64,-0.31,0.12,2.09
-9.48,7.33,-0.60,-0.36,0.08,2.22
-9.02,7.14,-0.57,-0.39,0.06,2.33
-8.60,7.01,-0.50,-0.42,0.05,2.43
-8.24,6.93,-0.39,-0.44,0.05,2.53
-7.80,6.87,-0.31,-0.47,0.04,2.63
-7.22,6.79,-0.26,-0.49,0.02,2.71
-6.61,6.68,-0.21,-0.50,0.02,2.76
-6.04,6.57,-0.19,-0.51,0.00,2.79
-5.43,6.45,-0.17,-0.53,-0.00,2.82
-4.74,6.31,-0.09,-0.54,0.01,2.83
-4.10,6.17,0.02,-0.55,0.04,2.83
-3.60,6.01,0.14,-0.56,0.08,2.82
-3.20,5.83,0.30,-0.56,0.11,2.81
-2.82,5.63,0.46,-0.57,0.15,2.80
-2.40,5.45,0.57,-0.57,0.17,2.77
-2.00,5.32,0.66,-0.57,0.19,2.73
-1.66,5.24,0.80,-0.56,0.23,2.69
-1.38,5.19,0.99,-0.54,0.28,2.66
-1.12,5.18,1.17,-0.53,0.34,2.64
-0.88,5.24,1.30,-0.53,0.38,2.61
-0.68,5.31,1.37,-0.53,0.42,2.60
-0.51,5.33,1.40,-0.54,0.46,2.58
-0.36,5.29,1.55,-0.56,0.49,2.57
-0.18,5.20,1.77,-0.61,0.49,2.57
0.04,5.04,2.03,-0.67,0.46,2.58
0.28,4.81,2.22,-0.74,0.39,2.59
0.54,4.61,2.32,-0.82,0.31,2.60
0.79,4.43,2.27,-0.88,0.24,2.61
1.06,4.30,2.25,-0.93,0.20,2.62
1.47,4.13,2.25,-0.97,0.20,2.63
2.00,3.93,2.28,-1.00,0.25,2.64
2.58,3.69,2.39,-1.03,0.36,2.64
2.98,3.51,2.59,-1.06,0.47,2.63
3.27,3.37,3.05,-1.12,0.54,2.64
3.69,3.13,3.54,-1.20,0.52,2.66
4.20,2.75,4.04,-1.29,0.45,2.66
4.80,2.31,4.39,-1.35,0.38,2.63
5.49,1.92,4.72,-1.36,0.37,2.57
6.35,1.69,5.04,-1.33,0.42,2.49
7.23,1.63,5.34,-1.24,0.57,2.38
7.89,1.72,5.68,-1.11,0.78,2.24
8.19,1.83,6.12,-0.99,0.98,2.09
8.35,1.88,6.68,-0.89,1.11,1.96
8.42,1.97,7.26,-0.84,1.13,1.88
8.79,2.03,7.76,-0.82,1.07,1.87
9.32,2.10,8.21,-0.79,0.98,1.78
9.73,2.15,8.61,-0.77,0.85,1.66
10.24,2.08,8.97,-0.73,0.73,1.53
10.79,1.97,9.29,-0.67,0.63,1.38
11.22,1.91,9.54,-0.58,0.56,1.20
11.50,1.89,9.71,-0.47,0.51,1.00
11.61,1.92,9.83,-0.36,0.47,0.80
11.57,1.98,9.90,-0.27,0.39,0.61
11.41,2.03,9.95,-0.19,0.28,0.43
11.28,2.04,9.96,-0.12,0.13,0.26
11.20,2.02,9.95,-0.06,-0.01,0.10
11.09,1.96,9.84,0.01,-0.14,-0.07
10.89,1.92,9.65,0.10,-0.22,-0.24
10.58,1.94,9.38,0.20,-0.28,-0.39
10.26,2.00,9.07,0.30,-0.32,-0.53
9.90,2.08,8.78,0.38,-0.35,-0.65
9.55,2.14,8.53,0.45,-0.41,-0.76
9.31,2.15,8.32,0.49,-0.48,-0.85
9.09,2.14,8.12,0.53,-0.55,-0.95
8.87,2.15,7.90,0.56,-0.62,-1.04
8.75,2.10,7.81,0.58,-0.71,-1.12
8.77,1.96,7.83,0.58,-0.85,-1.23
8.81,1.79,7.82,0.57,-1.02,-1.36
8.80,1.70,7.64,0.57,-1.17,-1.52
8.79,1.70,7.33,0.59,-1.29,-1.68
8.85,1.70,6.89,0.62,-1.33,-1.86
8.84,1.72,6.47,0.68,-1.28,-2.05
8.66,1.80,6.00,0.77,-1.13,-2.24
8.26,1.94,5.63,0.88,-0.92,-2.42
7.72,2.17,5.26,0.98,-0.69,-2.57
7.07,2.46,4.90,1.07,-0.49,-2.70
6.36,2.80,4.67,1.15,-0.33,-2.80
5.67,3.15,4.36,1.20,-0.25,-2.87
4.98,3.46,4.04,1.23,-0.22,-2.92
4.33,3.74,3.75,1.24,-0.24,-2.95
3.83,3.96,3.36,1.23,-0.27,-2.96
3.42,4.15,3.04,1.21,-0.28,-2.97
3.06,4.28,2.73,1.20,-0.25,-2.97
2.73,4.36,2.38,1.20,-0.18,-2.97
2.36,4.37,2.02,1.21,-0.05,-2.98
1.81,4.40,1.79,1.23,0.07,-2.99
1.10,4.46,1.50,1.23,0.11,-2.99
0.46,4.50,1.35,1.18,0.07,-2.99
-0.01,4.54,1.21,1.12,-0.04,-2.98
-0.42,4.53,1.05,1.02,-0.18,-2.97
-0.76,4.45,0.84,0.93,-0.29,-2.94
-0.99,4.24,0.58,0.85,-0.32,-2.94
-1.27,3.98,0.24,0.80,-0.28,-2.97
-1.58,3.78,0.03,0.78,-0.20,-3.01
-2.04,3.72,-0.24,0.76,-0.14,-3.06
-2.56,3.73,-0.41,0.75,-0.09,-3.11
-3.14,3.78,-0.52,0.73,-0.09,-3.13
-3.67,3.87,-0.65,0.68,-0.13,-3.13
-4.01,4.01,-0.71,0.61,-0.16,-3.11
-4.31,4.22,-0.75,0.53,-0.18,-3.09
-4.75,4.46,-0.79,0.45,-0.22,-3.07
-5.32,4.59,-0.80,0.37,-0.29,-3.04
-5.86,4.63,-0.81,0.30,-0.37,-2.99
-6.24,4.73,-0.82,0.22,-0.46,-2.93
-6.59,5.04,-0.76,0.16,-0.51,-2.87
-7.09,5.53,-0.74,0.13,-0.54,-2.82
-7.64,6.00,-0.79,0.11,-0.55,-2.76
-8.05,6.38,-0.86,0.10,-0.53,-2.70
-8.43,6.74,-0.85,0.10,-0.49,-2.63
-8.87,7.13,-0.77,0.10,-0.43,-2.54
-9.38,7.53,-0.71,0.11,-0.35,-2.42
-9.91,7.88,-0.76,0.14,-0.26,-2.26
-10.34,8.20,-0.84,0.17,-0.17,-2.09
-10.71,8.49,-0.88,0.19,-0.10,-1.91
-10.98,8.73,-0.78,0.19,-0.05,-1.75
-11.42,9.08,-0.66,0.17,-0.03,-1.62
aX,aY,aZ,gX,gY,gZ
13.24,0.04,8.51,0.25,-0.14,-0.78
12.93,0.09,8.30,0.30,-0.19,-0.99
12.53,0.10,8.15,0.35,-0.25,-1.20
12.08,0.11,7.99,0.40,-0.30,-1.39
11.66,0.15,7.79,0.44,-0.37,-1.57
11.24,0.20,7.65,0.47,-0.44,-1.73
10.93,0.18,7.54,0.49,-0.51,-1.88
10.64,0.13,7.47,0.52,-0.56,-2.04
10.31,0.09,7.39,0.57,-0.59,-2.20
9.91,0.06,7.30,0.63,-0.59,-2.37
9.51,0.02,7.20,0.70,-0.58,-2.53
9.08,-0.00,7.04,0.77,-0.58,-2.72
8.43,0.07,6.76,0.87,-0.54,-2.88
7.75,0.20,6.53,0.97,-0.50,-3.01
7.20,0.33,6.25,1.06,-0.47,-3.11
6.74,0.44,6.00,1.16,-0.42,-3.21
6.33,0.51,5.68,1.26,-0.31,-3.31
5.86,0.60,5.27,1.40,-0.14,-3.40
5.26,0.75,4.96,1.55,0.07,-3.48
4.51,0.99,4.74,1.72,0.29,-3.53
3.61,1.31,4.50,1.87,0.41,-3.54
2.63,1.68,4.10,1.95,0.41,-3.52
1.73,2.14,3.54,1.95,0.31,-3.46
0.94,2.59,3.06,1.87,0.14,-3.37
0.33,2.98,2.53,1.73,-0.08,-3.26
-0.10,3.25,2.16,1.54,-0.32,-3.14
-0.25,3.36,1.87,1.33,-0.54,-3.05
0.13,3.06,1.92,1.19,-0.68,-3.03
0.53,2.53,1.81,1.22,-0.65,-3.16
0.11,2.35,1.22,1.29,-0.53,-3.33
-0.72,2.43,0.61,1.33,-0.38,-3.43
-1.43,2.59,0.04,1.38,-0.19,-3.47
-1.92,2.77,-0.45,1.45,0.02,-3.51
-2.45,3.00,-0.85,1.51,0.19,-3.56
-3.15,3.29,-1.20,1.54,0.30,-3.60
-3.94,3.57,-1.40,1.52,0.32,-3.62
-4.67,3.78,-1.60,1.42,0.24,-3.60
-5.29,3.97,-1.79,1.25,0.10,-3.57
-5.74,4.13,-1.99,1.05,-0.07,-3.50
-6.06,4.25,-2.21,0.86,-0.19,-3.42
-6.43,4.32,-2.30,0.69,-0.25,-3.33
-7.02,4.43,-2.32,0.52,-0.32,-3.23
-7.65,4.63,-2.24,0.35,-0.42,-3.11
-8.12,4.88,-2.10,0.17,-0.53,-2.99
-8.39,5.13,-1.92,-0.00,-0.63,-2.88
-8.60,5.28,-1.81,-0.15,-0.70,-2.79
-8.83,5.36,-1.68,-0.25,-0.72,-2.69
-9.08,5.46,-1.42,-0.33,-0.71,-2.59
-9.31,5.71,-1.15,-0.39,-0.72,-2.48
-9.41,6.00,-0.87,-0.42,-0.72,-2.37
-9.48,6.25,-0.62,-0.40,-0.69,-2.26
-9.59,6.39,-0.40,-0.34,-0.62,-2.16
-9.89,6.56,-0.16,-0.24,-0.49,-2.06
-10.29,6.85,0.01,-0.13,-0.34,-1.93
-10.71,7.18,-0.00,0.00,-0.18,-1.78
-10.92,7.37,-0.13,0.11,-0.06,-1.67
-11.25,7.69,-0.25,0.20,0.03,-1.64
-11.69,8.10,-0.34,0.26,0.09,-1.62
-12.11,8.40,-0.40,0.30,0.11,-1.57
-12.50,8.55,-0.46,0.32,0.12,-1.49
-12.95,8.70,-0.58,0.33,0.12,-1.38
-13.36,8.86,-0.71,0.32,0.11,-1.22
-13.68,8.97,-0.81,0.28,0.08,-1.03
-13.92,9.04,-0.88,0.24,0.04,-0.83
-14.13,9.09,-0.92,0.18,0.01,-0.62
-14.29,9.08,-0.98,0.15,-0.01,-0.39
-14.33,9.00,-1.03,0.12,-0.00,-0.15
-14.23,8.86,-1.06,0.10,0.01,0.08
-14.08,8.70,-1.05,0.08,0.01,0.31
-13.93,8.52,-1.08,0.05,0.01,0.54
-13.69,8.30,-1.10,0.04,0.01,0.77
-13.33,8.06,-1.10,0.03,0.02,0.99
-13.00,7.82,-1.07,0.02,0.04,1.18
-12.76,7.62,-1.02,0.01,0.06,1.36
-12.49,7.44,-0.96,-0.00,0.08,1.54
-12.15,7.33,-0.96,-0.02,0.10,1.70
-11.74,7.27,-0.91,-0.04,0.12,1.85
-11.24,7.26,-0.91,-0.06,0.13,1.97
-10.67,7.33,-0.93,-0.07,0.14,2.07
-10.04,7.47,-0.96,-0.07,0.16,2.14
-9.43,7.64,-0.97,-0.06,0.20,2.18
-8.95,7.78,-0.74,-0.04,0.26,2.22
-8.68,7.90,-0.49,-0.00,0.33,2.24
-8.47,8.09,-0.30,0.03,0.38,2.26
-8.06,8.29,-0.25,0.06,0.39,2.28
-7.48,8.44,-0.32,0.08,0.40,2.27
-6.98,8.48,-0.40,0.12,0.43,2.23
-6.70,8.47,-0.56,0.17,0.52,2.19
-6.50,8.45,-0.76,0.23,0.63,2.15
-6.17,8.43,-1.05,0.25,0.75,2.13
-5.75,8.33,-1.38,0.26,0.87,2.08
-5.45,8.09,-1.71,0.24,0.99,2.03
-5.42,7.71,-2.00,0.21,1.11,1.96
-5.51,7.22,-2.24,0.14,1.17,1.92
-5.42,6.67,-2.47,0.01,1.17,1.88
-5.03,6.16,-2.64,-0.14,1.13,1.84
-4.49,5.69,-2.82,-0.29,1.12,1.79
-4.06,5.22,-2.90,-0.42,1.15,1.73
-3.77,4.75,-2.95,-0.53,1.21,1.69
-3.50,4.35,-2.98,-0.64,1.28,1.64
-3.18,4.11,-2.85,-0.75,1.33,1.60
-2.90,3.98,-2.63,-0.86,1.37,1.55
-2.68,3.87,-2.46,-0.96,1.41,1.51
-2.51,3.73,-2.34,-1.02,1.48,1.46
-2.43,3.63,-2.25,-1.08,1.56,1.42
-2.47,3.60,-2.16,-1.14,1.65,1.39
-2.54,3.64,-1.97,-1.22,1.69,1.36
-2.54,3.76,-1.73,-1.34,1.67,1.31
-2.58,3.90,-1.45,-1.50,1.60,1.24
-2.88,3.95,-1.22,-1.68,1.50,1.14
-3.44,3.83,-0.99,-1.87,1.40,1.04
-4.12,3.72,-0.54,-2.08,1.28,0.98
-4.72,3.75,0.01,-2.31,1.13,0.99
-5.20,3.84,0.79,-2.53,0.93,1.09
-5.54,3.90,1.67,-2.73,0.70,1.29
-5.66,3.86,2.65,-2.89,0.42,1.58
-5.47,3.62,3.39,-3.00,0.12,1.91
-5.10,3.22,3.99,-3.05,-0.11,2.24
-4.44,2.71,4.38,-3.05,-0.30,2.55
-3.62,2.15,4.92,-3.02,-0.41,2.81
-2.79,1.64,5.34,-2.96,-0.45,3.05
-2.14,1.27,5.76,-2.87,-0.41,3.26
-1.56,1.12,5.95,-2.80,-0.38,3.45
-0.78,1.12,6.19,-2.72,-0.36,3.61
0.06,1.27,6.30,-2.64,-0.34,3.74
0.65,1.44,6.59,-2.59,-0.39,3.88
1.34,1.15,6.99,-2.55,-0.45,4.19
2.45,0.56,7.60,-2.53,-0.57,4.38
3.43,0.12,8.23,-2.54,-0.82,4.49
4.70,-0.45,8.68,-2.52,-1.09,4.56
6.12,-1.11,9.01,-2.44,-1.30,4.57
7.55,-1.65,9.24,-2.27,-1.42,4.50
9.22,-2.19,9.71,-2.06,-1.47,4.41
11.31,-2.88,10.28,-1.83,-1.50,4.24
13.39,-3.62,10.75,-1.58,-1.52,3.95
15.15,-4.23,10.99,-1.30,-1.48,3.56
16.39,-4.56,10.96,-0.98,-1.35,3.11
17.47,-4.74,10.84,-0.66,-1.17,2.63
18.33,-4.82,10.78,-0.37,-0.98,2.11
18.83,-4.87,10.63,-0.10,-0.81,1.57
18.85,-4.84,10.32,0.12,-0.68,1.01
18.57,-4.71,9.89,0.31,-0.59,0.46
18.09,-4.45,9.41,0.46,-0.52,-0.06
17.25,-4.02,8.90,0.59,-0.45,-0.54
16.22,-3.58,8.44,0.67,-0.41,-0.96
15.16,-3.17,8.08,0.71,-0.41,-1.34
14.11,-2.83,7.73,0.71,-0.47,-1.67
13.16,-2.51,7.44,0.67,-0.56,-1.95
12.34,-2.26,7.12,0.63,-0.68,-2.20
11.64,-2.08,6.70,0.57,-0.80,-2.42
11.05,-1.94,6.27,0.53,-0.87,-2.63
10.52,-1.83,5.82,0.51,-0.87,-2.83
9.91,-1.69,5.47,0.52,-0.79,-3.02
9.24,-1.49,5.27,0.54,-0.67,-3.18
8.51,-1.24,5.16,0.56,-0.57,-3.33
7.74,-0.97,5.08,0.56,-0.51,-3.46
6.96,-0.73,5.03,0.55,-0.49,-3.57
6.28,-0.52,4.84,0.53,-0.49,-3.67
5.69,-0.33,4.61,0.52,-0.47,-3.75
5.06,0.03,4.37,0.51,-0.47,-3.82
4.44,0.45,4.09,0.50,-0.48,-3.87
3.92,0.78,3.79,0.50,-0.48,-3.87
3.47,1.00,3.49,0.51,-0.43,-3.86
3.03,1.19,3.22,0.54,-0.31,-3.85
2.55,1.39,2.97,0.60,-0.15,-3.84
2.01,1.61,2.68,0.66,0.00,-3.84
1.45,1.88,2.46,0.70,0.12,-3.83
0.93,2.14,2.30,0.71,0.19,-3.83
0.48,2.38,2.14,0.71,0.23,-3.83
0.06,2.55,1.97,0.71,0.29,-3.84
-0.45,2.69,1.75,0.74,0.38,-3.86
-1.12,2.86,1.54,0.77,0.45,-3.87
-1.78,2.96,1.38,0.80,0.48,-3.88
-2.34,3.08,1.21,0.83,0.49,-3.88
-2.77,3.21,1.07,0.84,0.47,-3.87
-3.10,3.34,0.96,0.85,0.48,-3.86
-3.52,3.51,0.84,0.86,0.49,-3.85
-4.07,3.73,0.55,0.86,0.48,-3.83
-4.50,3.96,0.37,0.85,0.48,-3.80
-4.89,4.12,0.33,0.85,0.50,-3.77
-5.49,4.18,0.33,0.86,0.55,-3.75
-6.35,4.21,0.38,0.86,0.56,-3.71
-7.27,4.29,0.42,0.83,0.48,-3.64
-8.00,4.45,0.40,0.79,0.35,-3.53
-8.48,4.66,0.38,0.77,0.26,-3.41
-8.91,4.90,0.35,0.79,0.26,-3.28
-9.52,5.21,0.23,0.86,0.31,-3.14
-10.17,5.57,0.05,0.93,0.37,-2.98
-10.59,5.92,-0.10,0.98,0.41,-2.79
-10.81,6.29,-0.22,1.01,0.43,-2.59
-11.07,6.68,-0.33,1.02,0.44,-2.36
-11.38,7.06,-0.51,0.99,0.41,-2.10
-11.63,7.44,-0.80,0.93,0.34,-1.83
-11.70,7.90,-1.11,0.85,0.26,-1.57
-11.78,8.63,-1.23,0.75,0.18,-1.37
-11.86,9.40,-1.19,0.64,0.10,-1.19
-11.80,9.91,-1.13,0.53,0.02,-1.03
-11.70,10.19,-1.05,0.42,-0.04,-0.88
-11.71,10.44,-1.05,0.32,-0.10,-0.74
-11.77,10.64,-1.05,0.24,-0.15,-0.60
aX,aY,aZ,gX,gY,gZ
11.97,-2.16,8.58,0.51,-0.69,-2.30
11.21,-1.93,8.26,0.59,-0.65,-2.51
10.28,-1.66,7.77,0.67,-0.63,-2.70
9.33,-1.41,7.24,0.74,-0.63,-2.87
8.39,-1.05,6.70,0.78,-0.64,-3.00
7.51,-0.60,6.33,0.79,-0.70,-3.10
6.77,-0.16,6.01,0.76,-0.77,-3.15
6.20,0.22,5.71,0.72,-0.84,-3.18
5.78,0.50,5.50,0.68,-0.89,-3.20
5.55,0.69,5.13,0.65,-0.86,-3.22
5.26,0.83,4.93,0.67,-0.77,-3.25
4.82,1.00,4.81,0.73,-0.69,-3.29
4.33,1.22,4.45,0.78,-0.61,-3.32
3.85,1.50,4.02,0.81,-0.55,-3.33
3.31,1.85,3.65,0.81,-0.51,-3.34
2.79,2.23,3.27,0.77,-0.50,-3.34
2.35,2.58,2.96,0.70,-0.50,-3.32
2.01,2.88,2.78,0.61,-0.50,-3.27
1.69,3.15,2.72,0.52,-0.53,-3.21
1.46,3.38,2.62,0.40,-0.57,-3.15
1.29,3.55,2.66,0.28,-0.63,-3.08
1.17,3.64,2.66,0.18,-0.65,-3.03
1.01,3.70,2.60,0.10,-0.65,-3.00
0.77,3.79,2.38,0.04,-0.63,-2.99
0.44,3.97,2.17,-0.01,-0.62,-3.00
0.10,4.21,2.02,-0.08,-0.61,-3.01
-0.20,4.43,1.98,-0.16,-0.62,-3.02
-0.51,4.62,1.98,-0.24,-0.64,-3.02
-0.82,4.74,1.96,-0.34,-0.66,-3.01
-1.13,4.84,1.98,-0.43,-0.68,-3.01
-1.41,4.97,2.05,-0.49,-0.65,-3.02
-1.79,5.11,2.31,-0.53,-0.60,-3.04
-2.24,5.15,2.59,-0.53,-0.53,-3.04
-2.75,5.11,2.88,-0.50,-0.46,-3.05
-3.23,5.05,3.20,-0.45,-0.39,-3.05
-3.65,4.98,3.47,-0.36,-0.31,-3.04
-4.05,4.97,3.64,-0.22,-0.21,-3.03
-4.44,5.11,3.62,-0.03,-0.09,-3.02
-4.78,5.35,3.41,0.19,0.05,-3.03
-5.10,5.61,3.00,0.39,0.17,-3.03
-5.42,5.80,2.62,0.55,0.28,-3.02
-5.66,5.99,2.23,0.66,0.37,-2.99
-5.80,6.30,1.79,0.76,0.47,-2.94
-5.95,6.78,1.30,0.87,0.59,-2.89
-6.18,7.39,0.69,0.96,0.73,-2.84
-6.53,8.10,0.06,1.01,0.85,-2.78
-7.00,8.85,-0.38,0.96,0.90,-2.71
-7.56,9.57,-0.61,0.84,0.88,-2.63
-8.21,10.23,-0.59,0.67,0.83,-2.53
-8.90,10.74,-0.30,0.49,0.74,-2.40
-9.52,10.96,0.05,0.31,0.60,-2.22
-10.03,10.87,0.38,0.16,0.50,-2.03
-10.61,10.70,0.68,0.07,0.45,-1.86
-11.29,10.69,0.74,0.04,0.45,-1.67
-11.98,10.75,0.77,0.03,0.44,-1.45
-12.55,10.73,0.91,0.00,0.42,-1.20
-12.98,10.64,1.05,-0.01,0.37,-0.92
-13.21,10.58,1.07,-0.02,0.30,-0.63
-13.23,10.60,0.99,-0.03,0.24,-0.35
-13.12,10.65,0.91,-0.04,0.19,-0.07
-12.93,10.66,0.90,-0.06,0.15,0.19
-12.67,10.60,0.93,-0.07,0.10,0.43
-12.32,10.48,0.93,-0.07,0.06,0.65
-11.86,10.31,0.96,-0.07,0.03,0.86
-11.38,10.10,0.99,-0.04,0.03,1.05
-10.97,9.89,1.02,0.01,0.06,1.21
-10.70,9.70,1.09,0.07,0.11,1.36
-10.62,9.52,1.17,0.13,0.17,1.51
-10.58,9.35,1.14,0.18,0.21,1.66
-10.50,9.21,1.05,0.20,0.23,1.81
-10.34,9.07,1.01,0.19,0.21,1.97
-10.09,8.87,0.98,0.17,0.17,2.13
-9.76,8.63,0.86,0.14,0.12,2.29
-9.30,8.38,0.77,0.10,0.06,2.44
-8.77,8.15,0.76,0.06,0.02,2.58
-8.19,7.92,0.73,0.05,0.01,2.71
-7.55,7.72,0.59,0.03,0.01,2.82
-6.90,7.55,0.52,0.01,0.03,2.92
-6.28,7.37,0.44,0.00,0.06,3.00
-5.67,7.23,0.36,-0.01,0.09,3.06
-5.10,7.08,0.34,-0.03,0.13,3.11
-4.58,6.90,0.33,-0.04,0.17,3.14
-4.12,6.70,0.28,-0.05,0.22,3.16
-3.67,6.52,0.26,-0.06,0.28,3.17
-3.19,6.38,0.31,-0.07,0.35,3.18
-2.69,6.25,0.44,-0.07,0.44,3.18
-2.22,6.12,0.63,-0.04,0.56,3.17
-1.80,6.00,0.72,0.01,0.71,3.14
-1.47,5.88,0.69,0.06,0.86,3.10
-1.22,5.74,0.55,0.09,0.99,3.04
-1.06,5.59,0.44,0.08,1.10,2.98
-0.91,5.41,0.44,0.05,1.17,2.93
-0.74,5.20,0.52,-0.00,1.22,2.89
-0.58,4.97,0.63,-0.06,1.27,2.85
-0.43,4.75,0.83,-0.13,1.32,2.82
-0.26,4.55,1.00,-0.21,1.36,2.80
-0.01,4.33,1.17,-0.30,1.38,2.79
0.28,4.04,1.36,-0.42,1.37,2.78
0.57,3.67,1.56,-0.55,1.34,2.76
0.84,3.29,1.77,-0.68,1.29,2.74
1.13,2.98,2.10,-0.82,1.23,2.72
1.52,2.70,2.54,-0.95,1.14,2.71
1.99,2.41,3.04,-1.06,1.05,2.72
2.57,2.12,3.47,-1.14,0.97,2.70
3.16,1.87,3.95,-1.20,0.94,2.67
3.79,1.69,4.30,-1.23,0.94,2.63
4.50,1.56,4.34,-1.22,1.01,2.57
5.10,1.58,4.21,-1.18,1.18,2.47
5.41,1.78,4.29,-1.13,1.41,2.35
5.47,1.98,4.74,-1.09,1.60,2.26
5.43,2.03,5.52,-1.08,1.73,2.20
5.36,2.02,6.59,-1.06,1.81,2.17
5.38,1.99,7.60,-1.01,1.83,2.17
5.69,1.92,8.43,-0.97,1.81,2.17
6.20,1.80,9.32,-0.92,1.74,2.18
6.75,1.73,9.95,-0.86,1.65,2.26
7.77,1.55,10.53,-0.77,1.52,2.28
8.85,1.40,10.76,-0.68,1.36,2.19
9.77,1.22,10.84,-0.59,1.21,2.02
10.47,1.06,10.92,-0.50,1.09,1.81
10.98,0.93,11.00,-0.39,0.97,1.58
11.32,0.91,11.12,-0.29,0.85,1.33
11.55,0.93,11.28,-0.19,0.71,1.09
11.69,0.90,11.41,-0.11,0.53,0.84
11.78,0.82,11.43,-0.05,0.31,0.59
11.85,0.77,11.25,-0.00,0.10,0.35
11.91,0.80,10.94,0.05,-0.08,0.11
11.89,0.84,10.57,0.10,-0.22,-0.14
11.75,0.83,10.26,0.14,-0.32,-0.38
11.48,0.79,10.00,0.20,-0.37,-0.62
11.06,0.78,9.79,0.28,-0.40,-0.84
10.44,0.88,9.54,0.35,-0.44,-1.05
9.69,1.13,9.25,0.39,-0.52,-1.23
9.03,1.40,8.94,0.40,-0.64,-1.36
8.56,1.61,8.67,0.37,-0.80,-1.47
8.24,1.73,8.40,0.33,-0.97,-1.57
8.03,1.76,8.09,0.30,-1.08,-1.68
7.91,1.74,7.82,0.30,-1.11,-1.78
7.81,1.72,7.63,0.34,-1.05,-1.90
7.65,1.74,7.58,0.42,-0.93,-2.01
7.38,1.76,7.55,0.55,-0.78,-2.14
6.92,1.85,7.54,0.70,-0.61,-2.27
6.35,2.01,7.42,0.87,-0.46,-2.38
5.81,2.23,7.04,1.04,-0.31,-2.47
5.33,2.50,6.45,1.18,-0.14,-2.54
4.88,2.85,6.01,1.31,0.07,-2.59
4.48,3.22,5.67,1.46,0.30,-2.61
4.04,3.49,5.59,1.61,0.50,-2.63
3.47,3.70,5.36,1.77,0.66,-2.65
2.76,3.92,5.04,1.90,0.75,-2.65
2.00,4.20,4.67,1.99,0.74,-2.63
1.31,4.49,4.30,2.04,0.68,-2.57
0.69,4.74,4.01,2.06,0.51,-2.48
0.16,4.96,3.59,2.04,0.27,-2.39
-0.34,5.13,3.42,1.98,-0.09,-2.30
-0.69,5.30,3.00,1.88,-0.54,-2.24
-0.86,5.44,2.50,1.71,-1.02,-2.19
-0.80,5.52,2.06,1.49,-1.48,-2.17
-0.55,5.49,1.48,1.27,-1.82,-2.17
-0.26,5.31,1.05,1.07,-1.98,-2.19
-0.10,5.05,0.84,0.93,-1.99,-2.24
-0.13,4.76,0.91,0.87,-1.92,-2.31
-0.10,4.40,0.98,0.91,-1.82,-2.44
-0.41,4.18,0.89,1.05,-1.67,-2.60
-1.13,4.24,0.47,1.14,-1.58,-2.73
-1.91,4.40,0.03,1.14,-1.55,-2.79
-2.38,4.44,-0.29,1.11,-1.50,-2.81
-2.54,4.31,-0.62,1.09,-1.39,-2.84
-2.66,4.15,-0.91,1.08,-1.22,-2.89
-2.94,4.05,-1.11,1.08,-1.04,-2.94
-3.45,4.10,-1.34,1.06,-0.92,-2.98
-4.03,4.34,-1.54,1.01,-0.86,-3.00
-4.59,4.79,-1.74,0.95,-0.83,-2.98
-5.11,5.30,-1.91,0.88,-0.82,-2.96
-5.65,5.65,-2.04,0.80,-0.84,-2.94
-6.21,5.84,-2.21,0.70,-0.85,-2.91
-6.68,6.07,-2.32,0.59,-0.83,-2.87
-7.07,6.49,-2.32,0.47,-0.77,-2.80
-7.56,6.97,-2.27,0.38,-0.68,-2.71
-8.28,7.41,-2.27,0.31,-0.60,-2.61
-9.08,7.89,-2.35,0.24,-0.55,-2.48
-9.66,8.49,-2.42,0.17,-0.51,-2.34
-9.87,9.08,-2.46,0.12,-0.46,-2.19
-9.93,9.52,-2.42,0.10,-0.35,-2.03
-10.05,9.84,-2.28,0.10,-0.21,-1.84
-10.41,10.18,-2.15,0.07,-0.10,-1.63
-10.69,10.48,-2.07,0.02,-0.06,-1.39
-10.97,10.88,-2.00,-0.05,-0.07,-1.20
-11.16,11.21,-1.90,-0.10,-0.11,-1.02
-11.20,11.27,-1.80,-0.13,-0.13,-0.86
-11.23,11.24,-1.69,-0.15,-0.11,-0.72
-11.37,11.27,-1.59,-0.14,-0.09,-0.59
-11.54,11.37,-1.47,-0.13,-0.09,-0.44
-11.52,11.38,-1.35,-0.12,-0.13,-0.28
-11.32,11.33,-1.25,-0.13,-0.18,-0.13
-11.17,11.31,-1.23,-0.14,-0.21,0.03
-11.13,11.34,-1.28,-0.13,-0.19,0.21
-11.09,11.34,-1.37,-0.12,-0.15,0.41
-11.02,11.25,-1.49,-0.12,-0.13,0.59
-10.96,11.15,-1.58,-0.14,-0.13,0.75
aX,aY,aZ,gX,gY,gZ
5.46,1.46,6.73,1.06,-0.98,-2.67
4.91,1.42,6.28,1.22,-0.83,-2.81
4.25,1.45,5.77,1.38,-0.64,-2.94
3.54,1.55,5.30,1.55,-0.44,-3.03
2.84,1.71,4.85,1.71,-0.25,-3.10
2.22,1.94,4.41,1.85,-0.09,-3.14
1.63,2.22,4.15,1.95,-0.00,-3.15
0.99,2.52,3.90,2.03,-0.03,-3.15
0.32,2.83,3.53,2.04,-0.18,-3.15
-0.27,3.17,3.04,1.97,-0.42,-3.13
-0.62,3.52,2.46,1.81,-0.68,-3.08
-0.77,3.84,1.98,1.62,-0.88,-3.02
-0.83,4.05,1.74,1.45,-1.02,-2.96
-0.90,4.13,1.43,1.31,-1.10,-2.93
-1.03,4.14,1.04,1.19,-1.11,-2.92
-1.25,4.06,0.94,1.12,-1.07,-2.93
-1.62,3.94,0.82,1.12,-1.01,-2.97
-2.22,3.99,0.36,1.13,-0.93,-2.99
-2.93,4.25,0.04,1.11,-0.86,-3.00
-3.62,4.66,-0.22,1.07,-0.77,-2.97
-4.25,5.09,-0.50,1.01,-0.68,-2.93
-4.82,5.49,-0.70,0.94,-0.59,-2.86
-5.38,5.92,-1.01,0.85,-0.54,-2.79
-5.88,6.42,-1.26,0.73,-0.52,-2.70
-6.29,7.01,-1.62,0.59,-0.55,-2.61
-6.63,7.61,-1.95,0.45,-0.58,-2.50
-6.86,8.16,-2.19,0.30,-0.59,-2.40
-7.09,8.68,-2.32,0.16,-0.58,-2.30
-7.41,9.25,-2.34,-0.01,-0.58,-2.21
-7.80,9.83,-2.22,-0.18,-0.60,-2.10
-8.12,10.36,-2.11,-0.34,-0.63,-1.98
-8.22,10.77,-2.00,-0.49,-0.67,-1.85
-8.20,11.07,-1.91,-0.60,-0.70,-1.72
-8.26,11.27,-1.72,-0.65,-0.66,-1.58
-8.36,11.41,-1.41,-0.65,-0.59,-1.44
-8.43,11.50,-1.01,-0.63,-0.50,-1.29
-8.44,11.58,-0.58,-0.61,-0.43,-1.13
-8.29,11.58,-0.09,-0.60,-0.39,-0.96
-8.15,11.56,0.41,-0.60,-0.38,-0.80
-8.15,11.50,0.87,-0.58,-0.37,-0.62
-8.16,11.40,1.26,-0.55,-0.37,-0.43
-8.06,11.37,1.56,-0.50,-0.38,-0.23
-7.91,11.51,1.81,-0.43,-0.37,-0.05
-7.90,11.70,1.98,-0.30,-0.33,0.10
-8.24,11.92,1.98,-0.15,-0.25,0.26
-8.62,12.03,1.83,-0.01,-0.20,0.42
-8.96,12.08,1.68,0.08,-0.18,0.58
-9.22,12.08,1.67,0.14,-0.17,0.74
-9.29,11.98,1.64,0.19,-0.17,0.89
-9.14,11.88,1.40,0.22,-0.18,1.03
-8.83,11.86,1.01,0.24,-0.19,1.16
-8.43,11.79,0.57,0.24,-0.20,1.30
-7.99,11.63,0.19,0.23,-0.20,1.43
-7.51,11.34,-0.06,0.22,-0.17,1.55
-7.01,10.95,-0.14,0.23,-0.12,1.65
-6.64,10.56,-0.22,0.23,-0.05,1.73
-6.53,10.19,-0.28,0.24,0.03,1.79
-6.52,9.81,-0.32,0.23,0.09,1.82
-6.49,9.39,-0.35,0.20,0.12,1.85
-6.41,8.95,-0.28,0.17,0.16,1.87
-6.36,8.54,-0.22,0.16,0.21,1.93
-6.32,8.16,-0.10,0.15,0.27,2.03
-6.22,7.76,0.13,0.13,0.31,2.14
-6.02,7.45,0.33,0.08,0.32,2.26
-5.74,7.18,0.55,0.02,0.31,2.35
-5.37,6.97,0.67,-0.03,0.31,2.43
-4.92,6.79,0.76,-0.06,0.33,2.49
-4.43,6.59,0.79,-0.07,0.38,2.54
-4.00,6.37,0.81,-0.06,0.47,2.57
-3.62,6.16,0.89,-0.05,0.57,2.61
-3.29,6.01,1.01,-0.04,0.66,2.66
-2.99,5.90,1.18,-0.06,0.74,2.72
-2.63,5.79,1.35,-0.10,0.79,2.80
-2.19,5.60,1.54,-0.16,0.80,2.88
-1.74,5.33,1.64,-0.23,0.84,2.94
-1.31,5.03,1.80,-0.29,0.88,3.00
-0.79,4.71,2.05,-0.34,0.93,3.07
-0.08,4.34,2.40,-0.39,0.98,3.11
0.76,4.02,2.78,-0.43,1.04,3.14
1.82,3.63,3.00,-0.42,1.14,3.09
3.17,3.14,3.04,-0.35,1.29,2.90
3.48,3.27,2.83,-0.18,1.55,2.60
2.99,3.70,2.36,-0.00,1.87,2.35
2.22,4.19,1.82,0.07,2.14,2.23
1.59,4.50,1.56,-0.02,2.29,2.24
1.32,4.52,1.61,-0.21,2.33,2.35
1.41,4.20,2.06,-0.43,2.31,2.52
1.78,3.62,2.78,-0.64,2.25,2.68
2.38,3.02,3.50,-0.81,2.16,2.81
3.11,2.57,4.02,-0.95,2.05,2.87
3.89,2.33,4.23,-1.06,2.00,2.86
4.39,2.29,4.29,-1.12,2.04,2.81
4.74,2.30,4.33,-1.19,2.10,2.77
5.16,2.19,4.83,-1.28,2.09,2.74
5.86,1.87,5.41,-1.40,2.00,2.69
6.72,1.49,6.02,-1.51,1.92,2.58
7.30,1.24,6.67,-1.56,1.92,2.40
7.29,1.18,7.46,-1.53,1.95,2.19
7.13,1.13,8.34,-1.52,1.88,2.02
7.24,0.93,9.26,-1.55,1.71,1.89
7.68,0.61,10.10,-1.56,1.51,1.79
8.32,0.27,10.60,-1.51,1.34,1.67
8.91,0.04,10.96,-1.43,1.19,1.51
9.35,-0.06,11.32,-1.33,1.06,1.34
9.71,-0.09,11.81,-1.22,0.94,1.17
10.04,-0.17,12.38,-1.10,0.81,1.01
10.35,-0.29,12.98,-0.96,0.66,0.83
10.62,-0.40,13.39,-0.80,0.49,0.62
10.80,-0.39,13.54,-0.64,0.33,0.40
10.84,-0.23,13.45,-0.48,0.17,0.16
10.74,-0.03,13.27,-0.33,0.02,-0.07
10.47,0.13,13.04,-0.19,-0.12,-0.30
10.04,0.28,12.75,-0.05,-0.25,-0.51
9.49,0.49,12.42,0.09,-0.36,-0.69
8.89,0.73,12.02,0.21,-0.49,-0.84
8.33,0.94,11.63,0.30,-0.64,-0.97
7.88,1.10,11.22,0.36,-0.81,-1.09
7.50,1.30,10.84,0.39,-1.00,-1.20
7.21,1.49,10.47,0.40,-1.18,-1.29
7.05,1.63,10.19,0.41,-1.35,-1.37
7.02,1.70,10.02,0.42,-1.51,-1.44
7.10,1.65,9.96,0.43,-1.68,-1.52
7.24,1.50,9.90,0.45,-1.83,-1.62
7.42,1.26,9.80,0.49,-1.98,-1.75
7.62,0.95,9.65,0.53,-2.12,-1.91
7.79,0.64,9.54,0.59,-2.24,-2.09
7.92,0.35,9.30,0.69,-2.29,-2.28
7.88,0.12,8.92,0.85,-2.26,-2.50
7.64,0.00,8.37,1.04,-2.14,-2.73
7.17,-0.04,7.66,1.27,-1.94,-2.95
6.47,0.04,6.96,1.50,-1.70,-3.16
5.59,0.23,6.19,1.72,-1.45,-3.35
4.56,0.52,5.38,1.93,-1.22,-3.49
3.46,0.95,4.52,2.10,-1.07,-3.58
2.43,1.51,3.60,2.17,-1.04,-3.62
1.61,2.17,2.72,2.13,-1.10,-3.58
1.10,2.85,2.04,1.99,-1.23,-3.49
0.89,3.44,1.41,1.79,-1.37,-3.36
0.86,3.90,0.95,1.57,-1.48,-3.23
0.94,4.28,0.70,1.35,-1.56,-3.10
1.11,4.52,0.58,1.14,-1.64,-2.99
1.34,4.66,0.63,0.92,-1.71,-2.89
1.59,4.64,0.65,0.72,-1.78,-2.82
1.80,4.49,0.57,0.54,-1.79,-2.80
1.88,4.26,0.40,0.45,-1.70,-2.82
1.80,4.06,0.14,0.46,-1.49,-2.89
1.55,3.97,-0.11,0.50,-1.22,-2.97
1.16,3.97,-0.32,0.56,-0.95,-3.06
0.62,4.05,-0.50,0.61,-0.68,-3.15
-0.12,4.14,-0.59,0.66,-0.46,-3.23
-1.05,4.20,-0.65,0.68,-0.28,-3.28
-2.08,4.28,-0.72,0.65,-0.17,-3.30
-3.12,4.44,-0.86,0.57,-0.15,-3.29
-4.11,4.69,-1.02,0.44,-0.19,-3.28
-5.00,4.96,-1.13,0.30,-0.29,-3.26
-5.83,5.21,-1.24,0.14,-0.40,-3.23
-6.61,5.47,-1.19,-0.04,-0.50,-3.19
-7.37,5.75,-1.06,-0.22,-0.58,-3.12
-8.04,6.10,-0.92,-0.41,-0.66,-3.02
-8.48,6.49,-0.76,-0.58,-0.74,-2.88
-8.68,6.83,-0.66,-0.72,-0.82,-2.74
-8.73,7.12,-0.59,-0.84,-0.88,-2.57
-8.71,7.39,-0.46,-0.93,-0.90,-2.39
-8.72,7.71,-0.28,-0.97,-0.90,-2.21
-8.72,8.16,-0.05,-0.99,-0.87,-2.03
-8.67,8.64,0.21,-0.99,-0.82,-1.87
-8.62,8.98,0.40,-0.94,-0.74,-1.73
-8.64,9.13,0.58,-0.88,-0.62,-1.61
-8.81,9.28,0.81,-0.80,-0.49,-1.50
-9.10,9.53,1.05,-0.71,-0.35,-1.36
-9.28,9.70,1.22,-0.61,-0.24,-1.22
-9.60,9.89,1.39,-0.50,-0.13,-1.09
-10.04,10.13,1.53,-0.40,-0.03,-0.95
-10.41,10.30,1.62,-0.30,0.04,-0.77
-10.68,10.50,1.63,-0.23,0.09,-0.59
-10.81,10.78,1.60,-0.18,0.11,-0.41
-10.79,11.08,1.52,-0.16,0.08,-0.24
-10.69,11.31,1.44,-0.17,0.03,-0.07
-10.57,11.43,1.34,-0.18,-0.02,0.10
-10.42,11.42,1.28,-0.20,-0.05,0.28
-10.27,11.32,1.31,-0.20,-0.05,0.45
-10.14,11.20,1.43,-0.20,-0.04,0.63
-10.03,11.08,1.58,-0.19,-0.04,0.81
-9.91,10.92,1.69,-0.18,-0.04,0.97
-9.74,10.69,1.72,-0.16,-0.05,1.12
-9.47,10.45,1.76,-0.12,-0.04,1.26
-9.21,10.23,1.77,-0.07,0.01,1.39
-9.10,10.04,1.77,-0.00,0.08,1.52
-9.00,9.90,1.76,0.05,0.14,1.66
-8.86,9.77,1.86,0.08,0.17,1.80
-8.73,9.61,1.98,0.10,0.16,1.92
-8.58,9.41,2.02,0.11,0.14,2.05
-8.28,9.17,1.96,0.12,0.11,2.17
-7.83,8.95,1.87,0.14,0.11,2.28
-7.37,8.75,1.84,0.17,0.13,2.37
-7.00,8.60,1.86,0.21,0.17,2.44
-6.71,8.43,1.88,0.25,0.21,2.52
-6.42,8.20,1.87,0.28,0.24,2.60
-6.08,7.93,1.93,0.30,0.25,2.66
-5.68,7.66,2.04,0.31,0.24,2.72
aX,aY,aZ,gX,gY,gZ
8.98,1.85,9.87,-0.65,1.54,1.32
9.39,1.83,10.15,-0.55,1.48,1.16
9.47,1.95,10.37,-0.46,1.40,1.01
9.56,2.09,10.68,-0.38,1.32,1.01
10.03,2.10,11.01,-0.30,1.20,0.91
10.33,2.15,11.28,-0.24,1.04,0.74
10.40,2.21,11.43,-0.18,0.86,0.56
10.34,2.33,11.37,-0.12,0.66,0.36
10.14,2.51,11.21,-0.08,0.43,0.17
9.94,2.72,11.01,-0.06,0.20,0.01
9.84,2.83,10.78,-0.04,-0.03,-0.15
9.80,2.84,10.54,-0.03,-0.22,-0.31
9.58,2.89,10.32,-0.04,-0.40,-0.48
9.22,2.97,10.16,-0.04,-0.56,-0.63
8.85,3.00,9.91,0.00,-0.67,-0.75
8.55,3.00,9.66,0.07,-0.76,-0.85
8.24,2.99,9.44,0.15,-0.84,-0.96
7.92,2.99,9.22,0.24,-0.91,-1.06
7.69,3.01,9.00,0.33,-0.98,-1.17
7.55,3.05,8.74,0.42,-1.05,-1.27
7.39,3.10,8.49,0.51,-1.10,-1.38
7.22,3.18,8.25,0.60,-1.15,-1.47
7.12,3.22,7.97,0.68,-1.18,-1.56
7.05,3.25,7.68,0.77,-1.18,-1.66
6.92,3.29,7.33,0.85,-1.17,-1.77
6.71,3.38,6.94,0.93,-1.16,-1.88
6.44,3.48,6.55,0.98,-1.15,-1.98
6.13,3.59,6.05,1.00,-1.15,-2.07
5.81,3.72,5.58,0.99,-1.13,-2.15
5.50,3.82,5.14,0.97,-1.10,-2.22
5.18,3.89,4.86,0.93,-1.07,-2.26
4.85,3.96,4.69,0.90,-1.06,-2.30
4.53,4.04,4.46,0.86,-1.05,-2.33
4.09,4.13,4.25,0.83,-1.05,-2.36
3.56,4.27,3.86,0.80,-1.06,-2.39
3.06,4.47,3.44,0.74,-1.08,-2.41
2.64,4.70,3.26,0.65,-1.13,-2.41
2.33,4.86,3.17,0.55,-1.18,-2.39
2.08,4.91,3.09,0.46,-1.20,-2.38
1.76,4.92,3.08,0.39,-1.20,-2.38
1.39,4.89,2.98,0.34,-1.19,-2.38
1.02,4.91,2.80,0.30,-1.17,-2.39
0.69,5.02,2.66,0.27,-1.14,-2.39
0.44,5.15,2.60,0.25,-1.11,-2.39
0.17,5.23,2.55,0.23,-1.08,-2.40
-0.17,5.26,2.53,0.22,-1.05,-2.40
-0.51,5.28,2.48,0.21,-1.02,-2.40
-0.79,5.31,2.43,0.20,-0.99,-2.39
