aX,aY,aZ,gX,gY,gZ
-15.24,2.86,5.06,-0.11,0.44,-1.00
-16.29,2.82,5.15,0.03,0.39,-0.74
-17.53,3.07,5.01,0.14,0.31,-0.34
-17.57,3.35,4.99,0.22,0.13,0.17
-16.73,3.70,4.73,0.29,-0.05,0.58
-15.93,4.07,4.52,0.36,-0.11,0.93
-15.30,4.24,4.33,0.43,-0.14,1.27
-14.78,4.24,4.13,0.47,-0.16,1.56
-14.27,4.21,3.93,0.50,-0.22,1.82
-13.60,4.17,3.69,0.53,-0.27,2.05
-12.82,4.13,3.43,0.55,-0.31,2.25
-12.01,4.05,3.20,0.56,-0.32,2.42
-11.24,3.94,3.01,0.57,-0.30,2.55
-10.52,3.80,2.77,0.58,-0.27,2.67
-9.83,3.61,2.50,0.59,-0.23,2.77
-9.20,3.39,2.31,0.59,-0.19,2.85
-8.62,3.12,2.19,0.60,-0.16,2.94
-8.05,2.81,2.15,0.61,-0.14,3.02
-7.46,2.50,2.07,0.62,-0.15,3.10
-6.90,2.24,2.01,0.64,-0.15,3.17
-6.50,2.03,1.96,0.66,-0.13,3.25
-6.24,1.76,1.99,0.69,-0.11,3.34
-5.97,1.43,1.82,0.72,-0.14,3.46
-5.54,1.33,1.62,0.72,-0.21,3.60
-4.86,1.41,1.50,0.73,-0.28,3.76
-3.81,1.48,1.31,0.74,-0.39,3.87
-2.71,1.60,1.07,0.76,-0.44,3.91
-1.94,1.78,0.93,0.77,-0.39,3.93
-1.50,1.97,0.82,0.75,-0.29,3.97
-1.18,2.09,0.90,0.71,-0.18,4.02
-0.75,2.05,1.15,0.64,-0.11,4.05
-0.24,1.97,1.40,0.57,-0.10,4.00
0.39,1.82,1.47,0.52,-0.14,3.94
1.13,1.58,1.47,0.47,-0.16,3.88
2.00,1.39,1.39,0.43,-0.14,3.85
2.84,1.44,1.20,0.39,-0.08,3.84
3.71,1.77,1.13,0.34,0.00,3.86
4.78,2.20,1.11,0.30,0.09,3.86
6.03,2.56,1.13,0.25,0.21,3.82
7.33,2.79,1.16,0.19,0.40,3.74
8.37,2.91,1.40,0.13,0.63,3.62
9.16,2.97,1.71,0.06,0.84,3.46
9.86,3.04,2.10,-0.01,1.04,3.26
10.52,3.22,2.63,-0.07,1.20,3.01
11.01,3.56,3.48,-0.11,1.29,2.73
11.37,3.99,4.55,-0.10,1.29,2.44
11.74,4.31,5.80,-0.03,1.14,2.15
12.28,4.47,6.65,0.09,0.89,1.85
13.21,4.66,6.82,0.21,0.64,1.52
14.48,5.19,6.46,0.31,0.45,1.17
15.85,6.17,6.03,0.36,0.37,0.78
16.86,7.33,5.78,0.40,0.37,0.37
17.26,8.29,5.71,0.41,0.44,-0.04
17.07,8.81,5.93,0.41,0.51,-0.42
16.47,9.01,6.21,0.42,0.49,-0.73
15.82,8.98,6.37,0.46,0.38,-0.98
15.12,8.87,6.17,0.51,0.19,-1.19
14.41,8.71,5.69,0.55,-0.01,-1.35
13.77,8.45,5.09,0.57,-0.20,-1.47
13.13,8.02,4.46,0.58,-0.36,-1.58
12.38,7.42,3.96,0.57,-0.48,-1.70
11.49,6.72,3.54,0.54,-0.60,-1.83
10.61,5.97,3.17,0.50,-0.70,-1.97
9.80,5.20,2.75,0.45,-0.78,-2.12
9.00,4.52,2.41,0.38,-0.84,-2.29
8.20,3.92,2.05,0.31,-0.88,-2.45
7.31,3.44,1.79,0.22,-0.89,-2.60
6.39,3.05,1.49,0.13,-0.89,-2.72
5.46,2.70,1.24,0.04,-0.89,-2.81
4.54,2.39,0.95,-0.06,-0.91,-2.87
3.73,2.12,0.67,-0.17,-0.93,-2.91
3.07,1.92,0.45,-0.29,-0.96,-2.95
2.54,1.78,0.23,-0.42,-1.00,-3.01
2.18,1.58,-0.01,-0.55,-1.02,-3.11
2.20,1.02,-0.15,-0.70,-1.02,-3.45
1.14,1.35,-0.16,-0.85,-1.03,-3.87
0.10,2.14,-0.22,-0.99,-1.04,-4.00
-0.17,2.69,-0.21,-1.15,-0.97,-3.96
-0.17,2.88,-0.05,-1.30,-0.82,-3.96
-0.45,2.92,0.17,-1.44,-0.62,-4.03
-1.02,3.10,0.45,-1.56,-0.37,-4.08
-1.77,3.30,0.99,-1.66,-0.09,-4.12
-2.72,3.45,1.74,-1.71,0.14,-4.14
-3.88,3.50,2.41,-1.70,0.28,-4.16
-5.18,3.53,3.00,-1.66,0.33,-4.18
-6.27,3.53,3.32,-1.59,0.30,-4.18
-7.33,3.67,3.37,-1.51,0.27,-4.17
-8.35,3.88,3.55,-1.42,0.33,-4.08
-9.03,4.18,3.63,-1.33,0.50,-3.94
-9.67,4.44,3.88,-1.24,0.78,-3.80
-10.74,4.60,4.44,-1.11,1.04,-3.65
-12.30,4.51,5.16,-0.95,1.23,-3.46
-14.19,4.35,5.75,-0.78,1.36,-3.21
-16.11,4.48,6.00,-0.62,1.33,-2.86
-17.58,4.99,5.79,-0.51,1.15,-2.43
-18.38,5.59,5.56,-0.42,0.86,-1.93
-18.62,5.88,5.30,-0.31,0.56,-1.41
-18.72,5.85,5.16,-0.21,0.35,-0.92
-18.72,5.76,5.20,-0.12,0.20,-0.44
-18.42,5.76,5.26,-0.04,0.05,0.03
-17.78,5.79,5.18,0.05,-0.08,0.49
-17.02,5.77,5.02,0.15,-0.17,0.91
-16.38,5.61,4.78,0.25,-0.22,1.30
-15.92,5.28,4.57,0.35,-0.22,1.67
-15.52,4.85,4.57,0.44,-0.23,2.05
-15.04,4.36,4.63,0.53,-0.25,2.42
-14.52,3.90,4.63,0.63,-0.25,2.79
-13.95,3.53,4.46,0.73,-0.25,3.15
-13.17,3.23,4.18,0.81,-0.28,3.50
-12.15,2.83,3.82,0.90,-0.36,3.83
-10.97,2.38,3.36,0.97,-0.44,4.13
-9.67,2.12,2.90,1.03,-0.54,4.38
-8.33,2.03,2.33,1.07,-0.64,4.57
-6.95,1.94,1.76,1.10,-0.74,4.71
-5.55,1.78,1.24,1.11,-0.78,4.81
-4.23,1.61,0.88,1.10,-0.75,4.87
-3.10,1.41,0.67,1.09,-0.64,4.90
-2.24,1.23,0.66,1.07,-0.45,4.92
-1.60,1.03,0.71,1.04,-0.25,4.95
-1.02,0.81,0.69,0.99,-0.05,4.98
-0.35,0.65,0.86,0.92,0.11,5.01
0.54,0.54,0.79,0.84,0.27,5.01
1.51,0.42,0.63,0.75,0.49,4.97
2.43,0.34,0.57,0.64,0.73,4.87
3.37,0.37,0.74,0.51,0.95,4.73
4.42,0.48,0.97,0.38,1.13,4.54
5.59,0.64,1.02,0.26,1.33,4.31
6.50,0.86,1.26,0.14,1.56,4.06
7.05,1.15,2.11,0.06,1.70,3.80
7.69,1.46,3.46,0.06,1.64,3.55
9.02,1.74,4.86,0.10,1.47,3.27
10.99,2.07,6.09,0.19,1.28,2.90
12.96,2.62,6.82,0.28,1.13,2.47
14.47,3.38,7.10,0.35,1.05,1.98
15.44,4.34,7.16,0.41,1.01,1.49
16.36,5.25,7.18,0.44,0.96,1.02
17.42,6.10,7.30,0.48,0.89,0.56
18.21,6.91,7.39,0.54,0.80,0.08
18.27,7.62,7.28,0.59,0.73,-0.35
17.63,8.15,7.02,0.65,0.64,-0.70
16.54,8.44,6.55,0.69,0.50,-0.96
15.36,8.56,5.81,0.70,0.33,-1.15
14.28,8.56,4.95,0.69,0.20,-1.29
13.22,8.49,4.27,0.65,0.10,-1.42
12.14,8.28,3.85,0.61,-0.01,-1.52
11.09,7.90,3.67,0.56,-0.17,-1.63
9.96,7.50,3.60,0.53,-0.41,-1.73
9.00,6.92,3.51,0.50,-0.69,-1.84
8.15,6.35,3.37,0.48,-1.03,-2.01
7.44,6.05,3.06,0.43,-1.34,-2.17
7.02,5.82,2.79,0.36,-1.60,-2.31
6.75,5.62,2.41,0.27,-1.77,-2.44
6.47,5.38,2.05,0.16,-1.85,-2.57
6.15,5.11,1.80,0.03,-1.86,-2.69
5.82,4.84,1.56,-0.11,-1.80,-2.79
5.49,4.55,1.30,-0.27,-1.69,-2.88
5.07,4.26,0.97,-0.43,-1.51,-2.97
4.55,3.99,0.77,-0.61,-1.31,-3.04
3.96,3.75,0.71,-0.77,-1.15,-3.10
3.17,3.52,1.13,-0.89,-1.10,-3.14
2.25,3.33,1.49,-0.94,-1.30,-3.16
1.45,3.14,1.26,-1.00,-1.56,-3.16
0.95,3.00,1.00,-1.08,-1.77,-3.20
0.93,2.90,0.69,-1.19,-1.80,-3.31
1.01,2.92,0.81,-1.32,-1.65,-3.48
0.84,2.97,1.01,-1.44,-1.31,-3.65
0.21,2.94,1.51,-1.56,-0.81,-3.77
-0.95,2.80,2.50,-1.63,-0.28,-3.83
-2.52,2.51,3.43,-1.62,0.13,-3.84
-3.69,1.48,4.17,-1.52,0.43,-4.03
-5.77,1.36,4.73,-1.32,0.49,-4.28
-7.53,1.77,4.93,-1.14,0.34,-4.23
-8.31,2.16,4.81,-0.96,0.22,-4.04
-9.07,2.74,4.72,-0.80,0.18,-3.90
-10.22,3.59,4.46,-0.67,0.20,-3.74
-11.33,4.51,4.13,-0.59,0.28,-3.51
-12.30,5.52,3.69,-0.55,0.41,-3.22
-13.04,6.46,3.68,-0.52,0.54,-2.91
-13.61,7.18,3.95,-0.49,0.60,-2.57
-14.07,7.54,4.33,-0.44,0.63,-2.19
-14.63,7.63,4.71,-0.38,0.62,-1.79
-15.37,7.57,4.95,-0.32,0.55,-1.36
-16.18,7.51,5.09,-0.25,0.43,-0.93
-16.79,7.43,5.06,-0.18,0.28,-0.47
-16.70,7.28,5.04,-0.10,0.13,-0.01
-16.50,7.14,4.93,-0.01,0.01,0.42
-16.14,7.00,4.92,0.09,-0.06,0.89
-15.50,6.81,4.93,0.20,-0.12,1.33
-14.74,6.64,4.91,0.31,-0.15,1.72
-13.90,6.40,4.83,0.43,-0.14,2.07
-12.96,6.14,4.63,0.56,-0.11,2.38
-11.90,5.94,4.26,0.67,-0.08,2.64
-10.86,5.79,3.78,0.74,-0.01,2.84
-9.89,5.71,3.54,0.81,0.11,3.03
-9.06,5.60,3.35,0.87,0.23,3.19
-8.36,5.37,3.12,0.92,0.34,3.34
-7.70,5.08,2.82,0.95,0.45,3.47
-7.05,4.88,2.59,0.96,0.53,3.59
-6.22,4.65,2.54,0.97,0.56,3.67
-5.62,4.11,2.17,1.02,0.53,3.67
-5.11,3.74,1.80,0.99,0.50,3.70
-4.49,3.59,1.41,0.93,0.52,3.76
-3.78,3.47,1.16,0.86,0.56,3.84
-3.07,3.23,0.82,0.76,0.64,3.91
-2.42,2.89,0.62,0.65,0.78,3.96
-1.90,2.57,0.67,0.53,0.92,4.01
-1.41,2.33,0.51,0.40,1.08,4.06
-0.87,2.21,0.38,0.23,1.30,4.09
-0.23,2.22,0.31,0.05,1.54,4.09
0.46,2.35,0.52,-0.16,1.80,4.02
1.10,2.47,1.07,-0.34,2.03,3.90
1.64,2.54,1.54,-0.51,2.21,3.77
1.95,2.48,1.82,-0.64,2.39,3.62
1.82,2.39,1.99,-0.75,2.57,3.50
1.53,2.25,2.51,-0.87,2.70,3.41
1.61,2.14,3.83,-0.94,2.69,3.32
2.74,2.07,5.50,-0.95,2.44,3.20
4.73,2.11,7.15,-0.91,2.12,2.97
6.95,2.28,8.43,-0.81,1.74,2.65
8.87,2.72,8.96,-0.70,1.43,2.31
10.49,3.43,9.12,-0.61,1.21,2.01
12.01,4.41,9.18,-0.53,1.06,1.75
13.42,5.51,9.44,-0.45,0.95,1.52
14.69,6.50,9.94,-0.36,0.84,1.29
15.71,7.26,10.38,-0.26,0.71,1.03
16.37,7.81,10.75,-0.14,0.54,0.76
16.76,8.25,10.91,-0.01,0.31,0.50
16.79,8.61,10.72,0.13,0.07,0.25
16.37,8.92,10.23,0.27,-0.16,0.01
15.61,9.12,9.55,0.38,-0.37,-0.22
14.65,9.23,8.79,0.48,-0.56,-0.44
13.56,9.45,7.88,0.55,-0.70,-0.61
12.97,8.68,7.51,0.62,-0.83,-0.84
11.42,8.48,6.89,0.71,-1.05,-1.17
9.89,8.80,6.24,0.75,-1.25,-1.26
9.06,8.95,5.64,0.76,-1.40,-1.21
8.83,8.66,5.09,0.74,-1.50,-1.18
8.76,7.98,4.71,0.71,-1.59,-1.28
8.48,7.34,4.32,0.66,-1.68,-1.47
8.06,6.94,4.10,0.60,-1.76,-1.67
7.74,6.60,3.76,0.51,-1.80,-1.85
7.35,6.15,3.49,0.41,-1.77,-2.04
6.90,5.52,3.04,0.30,-1.71,-2.22
6.41,4.80,2.54,0.18,-1.56,-2.40
5.88,4.16,2.12,0.05,-1.35,-2.57
5.29,3.71,1.89,-0.08,-1.13,-2.75
4.60,3.42,1.75,-0.19,-0.96,-2.92
3.82,3.21,1.49,-0.28,-0.83,-3.07
3.09,3.00,1.13,-0.37,-0.70,-3.15
2.49,2.81,0.82,-0.47,-0.56,-3.19
2.09,2.71,0.59,-0.58,-0.38,-3.20
1.93,2.74,0.50,-0.70,-0.16,-3.21
1.82,2.87,0.55,-0.82,0.06,-3.21
1.64,3.02,0.61,-0.92,0.27,-3.21
1.06,3.13,1.02,-1.00,0.36,-3.18
0.24,3.23,1.18,-1.06,0.28,-3.13
-0.54,3.28,1.30,-1.11,0.13,-3.09
-0.78,2.79,1.61,-1.15,-0.12,-3.14
-1.15,2.79,1.83,-1.20,-0.40,-3.37
-1.60,3.33,1.85,-1.25,-0.65,-3.52
-1.59,3.75,1.53,-1.30,-0.68,-3.59
-1.62,3.88,1.58,-1.35,-0.45,-3.68
-2.19,3.68,1.94,-1.37,-0.13,-3.79
-3.33,3.24,2.40,-1.34,0.26,-3.88
-4.73,2.58,3.09,-1.24,0.62,-3.91
-6.15,1.90,3.42,-1.08,0.91,-3.91
-7.66,1.49,3.56,-0.89,1.16,-3.88
-9.03,1.45,3.62,-0.69,1.34,-3.78
-10.10,1.75,3.56,-0.50,1.54,-3.64
-11.28,2.31,3.68,-0.33,1.65,-3.46
-12.35,2.77,3.53,-0.18,1.74,-3.21
-13.15,3.08,3.54,-0.03,1.82,-2.90
-13.71,3.32,3.69,0.11,1.84,-2.56
-14.58,3.46,3.72,0.25,1.86,-2.18
-15.95,3.55,3.58,0.37,1.88,-1.76
-17.47,3.70,3.25,0.46,1.82,-1.30
-18.39,3.88,2.76,0.52,1.64,-0.84
-19.18,4.21,1.99,0.53,1.42,-0.37
-19.61,4.47,1.43,0.51,1.26,0.21
-19.29,4.42,1.11,0.48,1.07,0.80
-18.77,4.29,0.89,0.45,0.88,1.32
-18.15,4.19,0.80,0.41,0.67,1.82
-17.27,4.17,0.70,0.38,0.43,2.28
-16.15,4.15,0.50,0.35,0.22,2.70
-14.95,4.04,0.26,0.30,0.08,3.09
-13.72,3.80,0.07,0.25,-0.05,3.44
-12.38,3.46,-0.12,0.19,-0.16,3.74
-11.01,2.99,-0.33,0.10,-0.28,4.00
-9.65,2.57,-0.42,0.00,-0.35,4.20
-8.41,2.33,-0.42,-0.10,-0.43,4.36
-7.24,2.10,-0.28,-0.18,-0.51,4.50
-6.11,1.79,-0.10,-0.23,-0.60,4.63
-5.04,1.41,0.03,-0.26,-0.68,4.71
-4.06,1.07,-0.02,-0.27,-0.76,4.72
-3.17,0.88,-0.19,-0.29,-0.79,4.70
-2.33,0.89,-0.23,-0.32,-0.79,4.66
-1.42,1.05,-0.18,-0.35,-0.76,4.62
-0.57,1.23,-0.10,-0.37,-0.68,4.59
0.17,1.30,0.22,-0.39,-0.56,4.58
0.82,1.24,0.85,-0.40,-0.48,4.59
aX,aY,aZ,gX,gY,gZ
-12.93,0.26,7.90,1.44,-0.13,3.20
-12.54,-0.19,7.47,1.56,-0.14,3.49
-11.84,-0.51,6.94,1.67,-0.21,3.80
-10.88,-0.67,6.41,1.77,-0.34,4.07
-9.84,-0.77,5.70,1.85,-0.49,4.29
-8.75,-0.79,4.75,1.91,-0.62,4.50
-7.55,-0.59,3.85,1.94,-0.75,4.68
-6.30,-0.29,3.09,1.94,-0.89,4.81
-5.02,0.00,2.37,1.92,-1.02,4.89
-3.77,0.23,1.70,1.89,-1.12,4.93
-2.54,0.34,1.09,1.84,-1.14,4.93
-1.33,0.36,0.59,1.79,-1.01,4.91
-0.40,0.42,0.33,1.72,-0.78,4.87
0.17,0.51,0.05,1.61,-0.57,4.83
0.48,0.57,-0.24,1.47,-0.31,4.81
0.61,0.50,-0.20,1.31,-0.10,4.80
0.77,0.28,-0.26,1.15,0.03,4.79
1.09,-0.01,-0.14,0.99,0.13,4.77
1.67,-0.25,-0.07,0.83,0.19,4.74
2.38,-0.35,-0.19,0.67,0.29,4.68
2.95,-0.28,-0.05,0.51,0.42,4.62
3.48,-0.15,0.52,0.36,0.47,4.57
4.23,-0.06,1.18,0.25,0.46,4.51
5.15,-0.04,1.70,0.15,0.45,4.42
5.99,-0.08,2.26,0.07,0.47,4.32
6.66,-0.10,3.15,0.03,0.38,4.22
7.77,-0.17,3.91,0.03,0.22,4.13
9.53,-0.24,4.43,0.07,0.09,3.99
12.03,-0.29,4.87,0.12,-0.01,3.75
14.79,-0.04,4.96,0.18,0.01,3.38
17.25,0.45,5.05,0.22,0.19,2.86
18.58,1.30,5.25,0.23,0.44,2.24
19.08,2.15,5.73,0.22,0.66,1.62
19.44,2.81,6.25,0.21,0.77,1.04
19.81,3.22,6.65,0.21,0.80,0.47
20.03,3.57,6.81,0.22,0.75,-0.10
19.91,4.03,6.64,0.23,0.68,-0.65
19.33,4.59,6.38,0.23,0.61,-1.14
18.32,5.09,6.01,0.22,0.52,-1.52
17.04,5.36,5.58,0.21,0.43,-1.80
15.79,5.37,5.24,0.19,0.32,-1.97
14.72,5.18,4.93,0.18,0.19,-2.07
13.74,4.88,4.78,0.17,0.04,-2.18
12.86,4.48,4.68,0.17,-0.14,-2.33
12.06,4.05,4.51,0.17,-0.32,-2.54
11.28,3.51,4.31,0.15,-0.49,-2.80
10.42,2.95,3.98,0.11,-0.67,-3.11
9.43,2.61,3.66,0.07,-0.86,-3.40
8.59,2.44,3.12,-0.01,-0.99,-3.64
7.95,2.39,2.75,-0.10,-1.05,-3.83
7.46,2.36,2.29,-0.21,-1.04,-4.02
6.81,2.26,1.92,-0.35,-0.94,-4.19
6.00,2.11,1.42,-0.50,-0.80,-4.32
5.09,1.94,0.91,-0.68,-0.60,-4.40
4.12,1.81,0.57,-0.87,-0.39,-4.43
3.21,1.78,0.27,-1.06,-0.17,-4.43
2.46,1.75,0.03,-1.27,0.07,-4.40
1.77,1.74,0.30,-1.45,0.28,-4.37
1.10,1.69,0.44,-1.59,0.35,-4.35
0.51,1.53,0.44,-1.71,0.40,-4.32
0.08,1.34,0.50,-1.83,0.45,-4.30
-0.27,1.11,0.62,-1.94,0.55,-4.30
-0.88,0.95,1.11,-2.05,0.66,-4.30
-1.88,0.86,1.68,-2.14,0.72,-4.27
-3.12,0.79,2.43,-2.20,0.73,-4.20
-4.26,0.58,3.16,-2.26,0.74,-4.11
-5.19,0.28,3.81,-2.32,0.87,-4.06
-6.21,0.12,4.39,-2.35,1.18,-3.95
-6.52,-0.09,5.06,-2.30,1.42,-3.80
-6.22,-0.71,5.65,-2.17,1.53,-3.86
-7.00,-0.61,6.12,-1.94,1.45,-4.07
-8.14,-0.20,6.06,-1.71,1.29,-4.12
-9.37,0.18,6.33,-1.50,1.13,-4.01
-10.69,0.44,6.88,-1.33,0.87,-3.85
-12.09,0.57,7.47,-1.15,0.69,-3.63
-13.51,0.61,8.36,-0.98,0.57,-3.35
-14.68,0.61,9.03,-0.82,0.48,-3.00
-15.41,0.80,9.22,-0.67,0.40,-2.60
-15.72,1.18,9.34,-0.55,0.24,-2.17
-15.57,1.47,9.33,-0.43,0.11,-1.73
-15.31,1.63,9.49,-0.29,0.08,-1.30
-15.39,1.67,9.73,-0.13,0.13,-0.89
-15.84,1.73,10.05,0.06,0.26,-0.49
-16.42,1.93,10.37,0.26,0.32,-0.09
-16.70,2.29,10.48,0.45,0.28,0.30
-16.46,2.72,10.37,0.63,0.20,0.68
-15.75,3.17,10.07,0.79,0.12,1.01
-14.80,3.59,9.66,0.93,0.09,1.28
-13.86,3.95,9.21,1.06,0.10,1.50
-13.08,4.18,8.83,1.18,0.20,1.65
-12.59,4.21,8.45,1.31,0.33,1.78
-12.39,4.08,7.88,1.41,0.46,1.89
-12.32,3.85,7.34,1.49,0.58,2.00
-12.16,3.45,6.79,1.56,0.70,2.12
-11.95,2.84,6.05,1.62,0.84,2.24
-11.83,2.13,5.15,1.65,1.10,2.36
-11.86,1.35,4.34,1.64,1.43,2.53
-12.05,0.36,3.83,1.60,1.78,2.73
-12.43,-0.82,3.66,1.53,2.02,2.96
-12.77,-2.06,3.67,1.45,1.99,3.24
-12.70,-3.10,3.59,1.36,1.64,3.57
-11.96,-3.85,3.32,1.29,1.07,3.95
-10.55,-4.24,2.69,1.22,0.43,4.35
-8.60,-4.20,2.11,1.17,-0.17,4.72
-6.26,-3.85,1.51,1.14,-0.70,5.01
-3.48,-3.35,0.54,1.14,-1.03,5.16
-1.15,-2.71,-0.35,1.15,-1.00,5.16
-0.10,-2.01,-0.89,1.10,-0.79,5.09
-0.20,-1.40,-1.40,0.98,-0.50,5.04
-0.87,-0.99,-1.53,0.79,-0.15,5.08
-1.07,-0.96,-1.22,0.56,0.11,5.19
-0.51,-1.16,-0.61,0.35,0.24,5.28
0.33,-1.40,0.30,0.18,0.23,5.32
1.39,-1.48,0.99,0.03,0.15,5.32
2.54,-1.35,1.32,-0.09,0.07,5.30
3.53,-1.11,1.29,-0.20,0.03,5.25
4.20,-0.91,1.42,-0.30,0.00,5.20
4.93,-0.93,1.82,-0.36,-0.10,5.19
6.17,-1.17,2.42,-0.38,-0.21,5.13
7.70,-1.44,3.28,-0.34,-0.34,5.01
9.35,-1.60,3.80,-0.26,-0.40,4.83
10.99,-1.56,4.12,-0.18,-0.38,4.62
12.63,-1.26,4.09,-0.10,-0.30,4.39
14.20,-0.69,4.18,-0.05,-0.14,4.12
15.75,-0.04,4.41,0.00,0.02,3.81
17.47,0.51,4.76,0.06,0.17,3.44
19.07,0.96,5.08,0.11,0.31,2.98
20.22,1.46,5.43,0.17,0.40,2.43
21.00,2.11,5.87,0.24,0.36,1.84
21.80,2.88,6.14,0.32,0.18,1.21
22.71,3.58,5.73,0.39,-0.03,0.55
23.29,4.12,4.99,0.39,-0.19,-0.16
23.43,4.53,4.35,0.34,-0.31,-0.88
23.21,4.88,3.65,0.25,-0.39,-1.58
22.61,5.10,2.95,0.12,-0.35,-2.25
21.52,5.02,2.70,-0.05,-0.20,-2.87
19.86,4.57,3.03,-0.21,-0.04,-3.42
17.58,3.82,4.08,-0.32,-0.01,-3.90
15.12,3.17,4.00,-0.35,-0.24,-4.28
12.85,2.81,3.59,-0.41,-0.46,-4.55
10.95,2.72,3.04,-0.49,-0.66,-4.72
9.37,2.77,2.58,-0.58,-0.85,-4.81
8.06,2.81,2.11,-0.67,-1.00,-4.84
6.92,2.70,1.64,-0.79,-1.09,-4.82
5.83,2.55,1.30,-0.94,-1.11,-4.76
4.81,2.43,1.04,-1.10,-1.08,-4.63
3.81,2.40,1.02,-1.27,-1.01,-4.46
2.91,2.44,1.08,-1.44,-0.91,-4.25
2.22,2.42,1.11,-1.61,-0.80,-4.02
1.79,2.21,1.19,-1.76,-0.67,-3.80
1.47,1.81,1.23,-1.89,-0.53,-3.63
1.07,1.29,1.32,-2.00,-0.41,-3.55
0.49,0.45,1.55,-2.07,-0.34,-3.51
0.64,-1.15,1.75,-2.18,-0.34,-3.92
-1.15,-0.82,1.84,-2.27,-0.38,-4.44
-2.32,0.32,1.55,-2.39,-0.37,-4.51
-2.41,0.69,1.59,-2.50,-0.28,-4.30
-2.21,0.10,2.15,-2.56,-0.24,-4.11
-2.68,-0.78,2.96,-2.54,-0.32,-4.03
-3.81,-1.46,3.83,-2.51,-0.48,-3.97
-4.79,-1.81,4.69,-2.46,-0.72,-3.87
-5.29,-1.65,5.31,-2.43,-1.00,-3.76
-5.36,-1.08,5.34,-2.44,-1.16,-3.65
-5.28,-0.40,5.39,-2.46,-1.10,-3.51
-5.32,0.08,5.64,-2.44,-0.90,-3.33
-5.46,0.13,6.31,-2.41,-0.60,-3.14
-5.65,-0.22,7.25,-2.34,-0.26,-3.01
-6.45,-0.59,8.32,-2.23,0.10,-2.94
-7.57,-0.74,9.44,-2.07,0.40,-2.81
-8.63,-0.66,10.07,-1.88,0.64,-2.62
-9.53,-0.23,10.61,-1.68,0.80,-2.40
-10.33,0.37,11.14,-1.46,0.85,-2.18
-11.24,0.82,11.83,-1.22,0.88,-1.92
-12.17,1.03,12.57,-0.98,0.89,-1.63
-13.06,1.19,13.19,-0.75,0.89,-1.33
-13.82,1.56,13.77,-0.52,0.87,-1.02
-14.36,1.99,14.09,-0.28,0.82,-0.67
-14.51,2.32,14.17,-0.04,0.79,-0.29
-14.35,2.50,14.08,0.19,0.77,0.08
-14.13,2.59,13.78,0.42,0.76,0.43
-13.95,2.61,13.38,0.64,0.76,0.78
-13.73,2.51,12.95,0.86,0.76,1.13
-13.42,2.25,12.47,1.06,0.77,1.47
-13.09,1.87,11.85,1.26,0.79,1.80
-12.76,1.47,11.16,1.45,0.80,2.12
-12.37,1.10,10.29,1.62,0.80,2.42
-11.96,0.80,9.37,1.76,0.78,2.71
-11.54,0.56,8.48,1.87,0.73,2.99
-11.03,0.37,7.49,1.94,0.65,3.27
-10.36,0.06,6.55,1.98,0.55,3.55
-9.46,-0.15,5.83,1.99,0.41,3.81
-8.45,-0.18,5.10,2.00,0.25,4.01
-7.41,-0.07,4.39,1.98,0.07,4.17
-6.33,0.10,3.71,1.96,-0.07,4.29
-5.26,0.31,2.99,1.92,-0.15,4.37
-4.26,0.50,2.34,1.86,-0.15,4.42
-3.45,0.68,1.89,1.79,-0.09,4.44
-2.85,0.81,1.52,1.72,-0.02,4.46
-2.38,0.89,1.27,1.62,0.02,4.48
-1.93,0.95,1.07,1.51,0.02,4.50
-1.38,0.97,1.04,1.39,0.01,4.52
-0.83,0.91,1.03,1.29,0.01,4.54
-0.41,0.78,0.97,1.20,0.06,4.54
-0.16,0.70,0.92,1.10,0.14,4.54
0.11,0.71,0.82,0.98,0.22,4.56
0.47,0.74,1.15,0.86,0.30,4.59
1.01,0.71,1.43,0.76,0.34,4.63
1.69,0.59,1.63,0.66,0.38,4.66
2.38,0.48,1.75,0.56,0.45,4.70
3.01,0.40,1.73,0.46,0.53,4.73
3.59,0.40,2.04,0.36,0.63,4.76
4.29,0.39,2.74,0.27,0.63,4.81
5.22,0.29,3.35,0.22,0.56,4.82
6.40,0.14,4.08,0.19,0.46,4.82
8.08,-0.11,4.82,0.22,0.32,4.77
10.50,-0.29,5.17,0.28,0.21,4.64
13.41,-0.25,5.28,0.34,0.26,4.36
15.97,0.15,5.26,0.39,0.42,3.94
17.63,0.78,5.06,0.40,0.66,3.42
18.53,1.48,4.85,0.34,0.91,2.82
18.98,2.13,4.94,0.25,1.05,2.18
19.26,2.66,5.22,0.17,1.06,1.52
19.37,3.06,5.72,0.10,0.97,0.86
19.25,3.36,6.23,0.08,0.80,0.22
18.78,3.67,6.58,0.08,0.59,-0.38
17.95,4.02,6.56,0.09,0.38,-0.88
16.92,4.44,6.16,0.07,0.23,-1.25
15.94,4.90,5.53,0.02,0.15,-1.46
15.22,5.22,5.03,-0.06,0.13,-1.55
14.78,5.24,4.75,-0.12,0.13,-1.58
14.33,4.94,4.63,-0.18,0.14,-1.61
13.82,4.31,4.70,-0.19,0.12,-1.73
12.99,3.64,4.67,-0.20,0.05,-1.95
11.86,3.13,4.87,-0.19,-0.10,-2.20
10.86,2.75,5.02,-0.17,-0.33,-2.43
10.14,2.38,5.20,-0.14,-0.59,-2.65
9.61,2.00,5.12,-0.12,-0.86,-2.88
9.09,1.65,4.91,-0.12,-1.07,-3.11
8.49,1.40,4.59,-0.13,-1.23,-3.34
7.87,1.29,4.04,-0.16,-1.31,-3.53
7.19,1.29,3.47,-0.22,-1.29,-3.69
6.49,1.37,2.91,-0.31,-1.20,-3.81
5.78,1.47,2.48,-0.43,-1.03,-3.89
5.10,1.54,2.22,-0.56,-0.84,-3.93
4.49,1.58,2.04,-0.70,-0.62,-3.93
3.83,1.57,2.01,-0.82,-0.44,-3.91
3.09,1.53,1.97,-0.93,-0.32,-3.88
2.33,1.43,1.94,-1.03,-0.25,-3.84
1.60,1.31,1.96,-1.12,-0.23,-3.82
1.02,1.18,1.91,-1.22,-0.24,-3.81
0.60,1.10,1.86,-1.32,-0.26,-3.82
0.29,1.10,1.81,-1.43,-0.27,-3.86
0.02,1.17,1.69,-1.56,-0.26,-3.91
-0.23,1.28,1.68,-1.70,-0.23,-3.95
-0.46,1.36,1.57,-1.85,-0.20,-3.98
-0.59,1.33,1.36,-2.00,-0.10,-3.99
-0.83,1.14,1.24,-2.16,0.12,-4.01
-1.36,0.92,1.29,-2.31,0.42,-4.03
-2.33,0.81,1.87,-2.43,0.72,-4.04
-3.53,0.81,2.52,-2.50,0.92,-4.02
-4.67,0.78,3.35,-2.56,1.16,-3.99
-5.40,0.43,4.28,-2.58,1.45,-3.96
-5.77,-0.04,5.14,-2.60,1.86,-4.06
-6.72,-0.33,6.68,-2.46,2.28,-4.13
-8.30,-0.80,8.00,-2.12,2.52,-4.12
-10.19,-1.34,8.36,-1.68,2.75,-4.11
-13.05,-1.20,8.57,-1.33,2.86,-4.04
-15.83,-0.21,8.35,-1.09,2.80,-3.76
-17.35,1.10,8.40,-0.89,2.56,-3.27
-17.31,1.95,8.35,-0.68,2.17,-2.77
-16.95,2.32,8.15,-0.46,1.88,-2.38
-17.32,2.51,8.05,-0.22,1.80,-2.02
-18.35,2.72,8.00,0.01,1.76,-1.62
-19.48,3.09,7.87,0.20,1.61,-1.19
-20.20,3.46,7.62,0.35,1.34,-0.74
-20.24,3.59,7.20,0.46,1.03,-0.27
-19.82,3.42,6.79,0.55,0.82,0.20
-19.28,3.11,6.51,0.64,0.69,0.65
-18.74,2.80,6.24,0.72,0.58,1.07
-18.22,2.48,6.00,0.81,0.44,1.48
-17.77,2.06,5.64,0.89,0.28,1.87
-17.34,1.57,5.22,0.96,0.13,2.27
-16.72,1.06,4.88,1.02,-0.04,2.67
-15.86,0.64,4.50,1.08,-0.24,3.05
-14.85,0.27,3.98,1.13,-0.44,3.39
-13.75,0.01,3.61,1.17,-0.61,3.69
-12.62,-0.32,3.08,1.21,-0.75,3.95
-11.42,-0.79,2.39,1.22,-0.82,4.19
-10.16,-1.05,1.93,1.20,-0.83,4.37
-8.98,-1.06,1.49,1.16,-0.85,4.51
-7.86,-0.92,1.14,1.12,-0.87,4.64
-6.82,-0.80,0.91,1.08,-0.85,4.75
-5.85,-0.74,0.69,1.03,-0.80,4.83
-5.09,-0.82,0.42,0.98,-0.72,4.90
-4.44,-1.00,0.30,0.90,-0.62,4.97
-3.67,-1.11,0.34,0.81,-0.53,5.03
-2.57,-1.13,0.58,0.71,-0.46,5.04
-1.37,-1.06,0.72,0.63,-0.31,5.01
-0.42,-0.93,0.65,0.54,-0.09,4.97
0.21,-0.82,0.34,0.41,0.22,4.92
aX,aY,aZ,gX,gY,gZ
-17.79,0.23,2.05,1.18,0.38,2.11
-16.70,-0.34,1.74,1.14,0.27,2.41
-15.57,-0.81,1.15,1.10,0.12,2.74
-14.38,-1.35,0.59,1.05,-0.02,3.07
-13.07,-2.11,0.20,1.00,-0.14,3.41
-11.66,-2.98,-0.20,0.95,-0.30,3.73
-10.26,-3.77,-0.63,0.89,-0.46,4.03
-8.92,-4.37,-0.98,0.81,-0.64,4.30
-7.67,-4.71,-1.27,0.75,-0.82,4.54
-6.49,-4.74,-1.67,0.70,-1.01,4.74
-5.48,-4.48,-2.06,0.67,-1.16,4.91
-4.65,-4.01,-2.21,0.65,-1.23,5.06
-3.98,-3.69,-1.80,0.70,-1.30,5.21
-3.40,-3.75,-1.50,0.82,-1.43,5.30
-2.78,-3.74,-1.87,0.89,-1.46,5.35
-1.97,-3.57,-2.14,0.87,-1.27,5.37
-0.76,-3.59,-1.98,0.77,-0.91,5.36
0.66,-3.72,-2.07,0.55,-0.40,5.15
1.37,-3.60,-1.40,0.27,0.27,4.81
1.79,-3.25,-0.26,0.06,0.77,4.55
2.50,-2.80,0.66,-0.02,0.96,4.42
3.49,-2.28,1.37,-0.01,1.04,4.36
4.47,-1.56,2.44,0.01,1.04,4.28
5.44,-0.58,3.84,0.07,0.93,4.13
6.48,0.61,5.06,0.17,0.72,3.92
7.44,1.82,5.98,0.29,0.46,3.68
8.60,3.03,6.85,0.42,0.16,3.44
10.07,4.24,7.61,0.56,-0.18,3.15
11.63,5.36,7.91,0.72,-0.45,2.83
13.08,6.40,7.95,0.85,-0.62,2.49
14.59,7.54,7.80,0.97,-0.73,2.13
16.16,8.80,7.37,1.07,-0.80,1.75
17.59,10.01,6.74,1.15,-0.75,1.36
18.62,10.88,5.82,1.19,-0.55,0.94
19.08,11.27,5.03,1.14,-0.20,0.52
18.94,11.23,4.43,1.04,0.17,0.10
18.18,10.94,4.07,0.89,0.49,-0.31
17.17,10.39,3.75,0.74,0.70,-0.70
16.05,9.66,3.56,0.59,0.80,-1.11
14.99,8.90,3.52,0.46,0.75,-1.52
14.09,8.10,3.37,0.34,0.62,-1.93
13.10,7.27,2.99,0.21,0.49,-2.34
11.83,6.39,2.51,0.05,0.43,-2.72
10.40,5.37,2.12,-0.12,0.43,-3.04
8.82,4.24,1.82,-0.31,0.44,-3.30
7.09,3.02,1.47,-0.49,0.41,-3.52
5.25,1.76,1.47,-0.63,0.33,-3.68
3.53,0.58,1.60,-0.72,-0.03,-3.79
2.38,-0.57,0.91,-0.82,-0.44,-3.89
1.83,-1.64,0.10,-0.97,-0.74,-4.04
1.54,-2.61,-0.48,-1.09,-0.85,-4.19
1.09,-3.80,-0.48,-1.14,-0.83,-4.27
0.73,-5.39,-0.44,-1.25,-0.69,-4.54
-1.36,-5.89,-0.12,-1.37,-0.52,-4.79
-3.15,-5.66,0.39,-1.56,-0.52,-4.78
-3.98,-5.20,1.17,-1.76,-0.61,-4.73
-4.58,-4.44,2.04,-1.92,-0.70,-4.76
-5.20,-3.74,2.48,-2.04,-0.72,-4.81
-5.81,-3.35,2.73,-2.15,-0.62,-4.85
-6.66,-3.32,3.19,-2.23,-0.51,-4.88
-7.65,-3.26,4.03,-2.32,-0.47,-4.92
-8.71,-2.66,5.81,-2.27,-0.80,-5.00
-9.48,-1.57,5.70,-2.21,-1.13,-5.05
-9.73,-0.50,5.32,-2.23,-1.19,-5.02
-9.60,0.28,5.40,-2.22,-1.21,-4.91
-9.60,0.70,5.59,-2.19,-1.12,-4.75
-9.97,0.81,6.55,-2.14,-0.79,-4.58
-10.46,0.60,8.22,-1.98,-0.32,-4.44
-11.20,0.01,9.61,-1.71,0.16,-4.53
-13.75,-0.51,10.44,-1.36,0.69,-4.63
-17.22,-1.05,10.63,-1.05,1.18,-4.50
-20.59,-1.43,10.44,-0.84,1.64,-4.13
-23.14,-1.45,10.80,-0.70,1.96,-3.60
-24.65,-0.93,11.49,-0.58,2.01,-3.02
-26.05,-0.11,12.34,-0.40,1.97,-2.43
-27.38,0.39,12.99,-0.20,1.76,-1.72
-27.79,0.53,13.10,-0.01,1.39,-0.96
-27.34,0.68,12.71,0.16,0.89,-0.28
-26.25,0.65,11.70,0.33,0.38,0.38
-24.63,0.22,10.56,0.48,0.01,1.00
-22.82,-0.54,9.58,0.62,-0.26,1.56
-21.01,-1.40,8.45,0.75,-0.51,2.04
-19.15,-2.17,7.27,0.86,-0.70,2.47
-17.15,-2.82,6.30,0.97,-0.84,2.90
-15.12,-3.37,5.49,1.08,-0.94,3.30
-13.26,-3.78,4.70,1.19,-1.01,3.64
-11.59,-4.07,4.04,1.28,-1.04,3.94
-10.12,-4.29,3.48,1.37,-1.02,4.21
-8.91,-4.52,2.95,1.45,-0.94,4.45
-7.97,-4.79,2.55,1.51,-0.84,4.66
-7.18,-5.04,1.98,1.56,-0.75,4.86
-6.46,-5.29,1.58,1.61,-0.66,5.04
-5.84,-5.53,1.37,1.66,-0.59,5.21
-5.27,-5.76,1.32,1.73,-0.60,5.37
-4.47,-6.00,0.88,1.79,-0.67,5.53
-3.40,-6.05,0.37,1.82,-0.69,5.62
-2.41,-5.89,-0.20,1.82,-0.66,5.67
-1.62,-5.59,-0.80,1.77,-0.55,5.70
-1.06,-5.20,-1.43,1.67,-0.38,5.72
-0.59,-4.84,-2.13,1.49,-0.14,5.73
-0.26,-4.47,-2.52,1.25,0.14,5.74
-0.15,-4.10,-2.55,0.97,0.38,5.74
-0.11,-3.80,-2.02,0.67,0.54,5.74
0.23,-3.61,-0.90,0.40,0.54,5.72
0.98,-3.43,0.56,0.19,0.33,5.65
1.98,-3.16,2.68,0.07,-0.09,5.50
3.44,-2.88,5.07,0.12,-0.79,5.27
5.87,-2.52,6.44,0.31,-1.60,4.93
9.67,-1.98,6.38,0.55,-2.22,4.55
14.59,-0.82,5.94,0.76,-2.49,4.11
19.44,1.28,5.43,0.95,-2.49,3.65
21.99,4.13,4.39,1.13,-2.24,3.28
23.44,6.14,3.55,1.22,-1.82,3.22
26.53,6.40,2.81,1.21,-1.50,2.91
28.75,6.20,0.96,1.08,-1.04,2.11
28.46,6.24,-0.74,0.75,-0.24,1.21
27.04,6.25,-0.72,0.32,0.58,0.39
25.12,6.19,0.18,-0.04,1.12,-0.41
22.58,6.06,0.91,-0.30,1.35,-1.20
19.76,5.71,1.36,-0.53,1.41,-1.92
16.83,5.27,1.34,-0.76,1.41,-2.54
13.93,4.76,1.10,-1.03,1.46,-3.01
11.29,4.06,1.13,-1.31,1.54,-3.36
8.80,3.20,1.64,-1.52,1.55,-3.64
6.54,2.32,2.17,-1.60,1.25,-3.86
4.87,1.35,1.68,-1.65,0.85,-4.06
3.94,0.30,0.97,-1.72,0.53,-4.26
3.42,-0.58,0.11,-1.84,0.34,-4.48
3.14,-1.28,-0.74,-1.97,0.27,-4.69
2.90,-1.98,-1.52,-2.09,0.39,-4.87
2.65,-3.03,-2.06,-2.18,0.69,-5.04
2.03,-4.09,-1.80,-2.27,1.09,-5.36
0.64,-4.68,-1.34,-2.29,1.34,-5.65
-0.54,-5.28,-1.27,-2.30,1.47,-5.80
-1.27,-6.01,-1.24,-2.33,1.60,-5.93
-1.77,-6.75,-1.22,-2.37,1.83,-6.08
-2.17,-7.45,-1.23,-2.45,2.20,-6.26
-2.84,-8.05,-0.16,-2.49,2.53,-6.40
-3.69,-8.56,0.25,-2.40,2.49,-6.50
-4.60,-9.23,0.39,-2.27,2.43,-6.48
-5.38,-10.09,0.95,-2.20,2.44,-6.41
-6.71,-10.51,1.78,-2.18,2.51,-6.38
-9.08,-10.23,3.59,-2.15,2.52,-6.32
-11.90,-9.56,5.54,-2.05,2.28,-6.19
-14.05,-8.85,7.14,-1.91,1.86,-5.99
-14.72,-8.22,7.96,-1.73,1.35,-5.73
-14.27,-7.78,7.82,-1.55,0.95,-5.38
-13.97,-7.68,8.13,-1.34,0.80,-4.96
-14.79,-8.12,8.77,-1.08,0.80,-4.51
-16.67,-8.75,9.61,-0.84,0.86,-4.08
-18.84,-8.84,10.41,-0.63,0.93,-3.66
-20.22,-8.24,10.98,-0.47,0.98,-3.17
-20.63,-7.23,11.48,-0.34,1.08,-2.67
-21.04,-5.97,12.36,-0.21,1.19,-2.25
-22.04,-4.67,13.14,-0.02,1.16,-1.85
-23.23,-3.55,13.54,0.22,1.02,-1.43
-24.09,-2.80,13.13,0.45,0.87,-0.96
-24.59,-2.36,12.40,0.63,0.80,-0.46
-24.62,-2.21,11.91,0.77,0.79,0.09
-24.22,-2.40,11.65,0.91,0.72,0.66
-23.49,-2.88,11.03,1.06,0.59,1.21
-22.51,-3.46,10.23,1.20,0.39,1.75
-21.30,-4.09,9.00,1.33,0.16,2.27
-19.88,-4.73,7.66,1.43,-0.06,2.76
-18.29,-5.33,6.35,1.51,-0.25,3.21
-16.65,-5.82,5.11,1.56,-0.39,3.61
-15.02,-6.16,4.11,1.59,-0.51,3.96
-13.42,-6.36,3.10,1.61,-0.60,4.25
-11.95,-6.46,2.19,1.61,-0.66,4.50
-10.75,-6.52,1.49,1.61,-0.70,4.70
-9.92,-6.63,0.84,1.60,-0.71,4.88
-9.28,-6.77,0.28,1.57,-0.70,5.06
-8.52,-6.91,-0.10,1.52,-0.71,5.23
-7.52,-7.00,-0.50,1.46,-0.75,5.36
-6.59,-7.11,-0.76,1.42,-0.81,5.46
-5.67,-6.96,-1.30,1.35,-0.88,5.52
-4.99,-6.53,-1.63,1.27,-0.88,5.56
-4.41,-6.00,-1.97,1.17,-0.89,5.59
-3.87,-5.50,-2.37,1.05,-0.83,5.63
-3.43,-5.05,-2.43,0.91,-0.77,5.66
-3.03,-4.67,-2.71,0.75,-0.73,5.69
-2.72,-4.32,-2.71,0.57,-0.67,5.72
-2.39,-4.01,-2.76,0.37,-0.63,5.75
-1.92,-3.73,-2.94,0.14,-0.59,5.77
-1.35,-3.41,-2.99,-0.13,-0.51,5.78
-0.87,-3.02,-2.68,-0.41,-0.45,5.76
-0.50,-2.67,-2.43,-0.67,-0.42,5.73
-0.25,-2.38,-1.79,-0.93,-0.40,5.69
0.08,-2.12,-0.85,-1.18,-0.47,5.63
0.58,-1.88,0.78,-1.36,-0.67,5.58
1.24,-1.69,2.50,-1.44,-1.03,5.53
2.02,-1.64,4.52,-1.41,-1.48,5.49
2.89,-1.84,6.66,-1.21,-2.07,5.45
4.43,-2.33,8.46,-0.84,-2.85,5.39
8.01,-3.12,9.19,-0.37,-3.64,5.22
14.07,-3.60,8.97,0.15,-3.91,4.81
20.12,-2.75,9.18,0.61,-3.75,4.19
24.49,-0.68,9.72,1.06,-3.60,3.51
27.73,1.78,7.95,1.40,-3.22,2.69
29.88,3.91,6.32,1.45,-2.30,1.81
30.62,4.90,5.65,1.27,-1.11,0.94
29.64,4.91,5.75,0.97,0.04,0.17
27.73,4.39,6.59,0.73,0.83,-0.54
25.24,3.83,7.05,0.61,1.20,-1.22
22.64,3.38,7.03,0.56,1.32,-1.85
20.11,2.97,7.04,0.55,1.31,-2.42
17.77,2.51,6.87,0.58,1.17,-2.92
15.66,1.95,6.00,0.61,1.06,-3.36
13.76,1.36,4.86,0.61,1.05,-3.74
12.14,0.80,3.64,0.58,1.16,-4.04
10.74,0.29,2.45,0.54,1.35,-4.29
9.42,-0.22,1.29,0.51,1.61,-4.51
8.05,-0.69,0.45,0.51,1.88,-4.69
6.76,-1.18,-0.25,0.52,2.13,-4.83
5.72,-1.63,-0.55,0.54,2.34,-4.96
4.67,-1.94,-0.53,0.59,2.44,-5.06
3.68,-2.15,-0.66,0.64,2.47,-5.11
2.95,-2.37,-0.63,0.70,2.43,-5.11
2.39,-2.66,-1.08,0.76,2.31,-5.11
2.05,-2.95,-1.79,0.77,2.24,-5.11
1.82,-3.12,-2.22,0.75,2.17,-5.12
1.59,-3.11,-2.71,0.71,2.07,-5.12
1.28,-2.98,-3.41,0.63,2.05,-5.11
1.09,-2.91,-3.90,0.49,2.14,-5.09
0.46,-2.97,-4.18,0.34,2.32,-5.06
-0.25,-3.22,-4.18,0.16,2.54,-5.02
-0.97,-3.65,-3.65,0.02,2.69,-5.03
-1.60,-4.13,-2.85,-0.05,2.64,-5.12
-1.63,-5.41,-1.81,0.02,2.29,-5.47
-2.75,-5.41,-1.70,0.06,1.76,-6.06
-4.10,-4.69,-2.40,0.07,1.28,-6.38
-5.36,-4.65,-2.73,0.01,0.99,-6.50
-7.24,-5.58,-2.19,-0.04,0.78,-6.48
-9.38,-7.15,-1.19,-0.03,0.48,-6.37
-11.69,-8.14,0.14,-0.00,0.11,-6.21
-13.54,-8.12,1.19,0.04,-0.33,-5.96
-14.09,-7.33,0.53,0.03,-0.47,-5.66
-13.61,-6.65,-0.23,-0.09,-0.05,-5.32
-13.17,-6.65,-0.48,-0.21,0.66,-4.99
-14.58,-7.26,-0.47,-0.27,1.38,-4.70
-17.86,-7.81,0.18,-0.31,1.90,-4.39
-21.76,-7.56,1.15,-0.32,2.06,-3.97
-24.64,-6.85,2.00,-0.27,1.93,-3.39
-25.93,-5.99,2.13,-0.20,1.71,-2.75
-26.49,-5.34,1.96,-0.14,1.54,-2.14
-26.99,-4.93,1.81,-0.10,1.39,-1.57
-27.53,-4.47,1.73,-0.06,1.21,-1.02
-27.76,-3.96,1.51,-0.01,1.01,-0.47
-27.63,-3.61,1.08,0.03,0.87,0.07
-27.33,-3.52,0.64,0.05,0.76,0.62
-26.98,-3.67,0.28,0.06,0.65,1.16
-26.40,-3.95,0.01,0.06,0.53,1.72
-25.09,-4.38,-0.12,0.06,0.39,2.26
-24.23,-4.74,-1.00,0.07,0.27,2.79
-23.24,-5.29,-1.87,0.02,0.29,3.36
-22.05,-6.00,-2.07,-0.06,0.32,3.93
-20.63,-6.65,-2.15,-0.11,0.22,4.46
-19.07,-7.19,-2.48,-0.14,0.05,4.95
-17.47,-7.67,-2.90,-0.17,-0.14,5.39
-15.86,-8.07,-3.22,-0.18,-0.33,5.77
-14.25,-8.32,-3.41,-0.18,-0.56,6.07
-12.54,-8.37,-3.37,-0.14,-0.87,6.31
-10.70,-8.23,-3.37,-0.03,-1.26,6.48
-8.74,-7.90,-3.68,0.12,-1.64,6.57
-6.86,-7.40,-4.20,0.26,-1.87,6.58
-5.29,-6.96,-4.70,0.37,-1.91,6.52
-4.03,-6.58,-5.05,0.41,-1.79,6.43
-3.03,-6.18,-5.21,0.38,-1.58,6.29
-2.32,-5.81,-5.36,0.28,-1.29,6.09
-1.95,-5.52,-5.79,0.07,-0.96,5.86
-1.80,-5.20,-6.08,-0.29,-0.53,5.63
-1.97,-4.76,-5.27,-0.69,-0.01,5.45
-2.24,-4.07,-2.17,-0.87,0.09,5.34
-2.13,-3.16,-1.98,-0.81,-0.35,5.10
-2.00,-2.64,-2.74,-0.73,-0.53,4.78
-1.63,-2.71,-3.06,-0.75,-0.45,4.53
-0.60,-3.00,-3.31,-0.85,-0.31,4.35
0.40,-2.72,-3.74,-1.04,-0.06,4.17
0.88,-1.69,-3.90,-1.34,0.33,4.10
0.73,-0.27,-3.03,-1.67,0.75,4.15
0.38,1.00,-0.11,-1.91,0.85,4.27
0.69,1.58,2.94,-1.96,0.50,4.33
2.10,1.34,5.81,-1.87,0.01,4.24
5.03,0.88,7.53,-1.69,-0.39,3.94
8.98,1.02,8.13,-1.46,-0.46,3.48
12.89,2.12,8.28,-1.28,-0.21,2.95
15.67,4.18,8.76,-1.13,0.18,2.40
16.30,6.25,9.17,-1.01,0.60,1.91
16.80,7.53,10.46,-0.93,0.93,1.57
17.82,7.47,12.14,-0.78,1.12,1.15
18.28,6.49,13.24,-0.56,1.21,0.57
17.86,5.48,13.60,-0.32,1.22,-0.04
17.01,5.00,13.12,-0.09,1.18,-0.59
15.84,5.13,11.94,0.09,1.15,-1.07
14.14,5.46,10.49,0.18,1.15,-1.51
11.98,5.64,9.61,0.24,1.16,-1.86
10.03,5.50,8.88,0.30,1.08,-2.11
8.68,5.05,8.24,0.36,0.96,-2.29
7.81,4.46,7.61,0.43,0.81,-2.47
7.03,3.89,6.99,0.51,0.67,-2.69
aX,aY,aZ,gX,gY,gZ
-25.53,-4.30,1.43,0.38,-0.28,1.27
-24.47,-4.54,1.17,0.40,-0.35,1.74
-23.39,-4.79,0.92,0.42,-0.39,2.17
-22.34,-4.97,0.73,0.43,-0.43,2.56
-21.21,-5.16,0.51,0.45,-0.46,2.93
-20.03,-5.46,0.21,0.46,-0.45,3.28
-18.92,-5.92,-0.02,0.47,-0.41,3.61
-17.95,-6.51,-0.21,0.47,-0.35,3.92
-16.94,-7.14,-0.26,0.47,-0.35,4.22
-15.76,-7.67,-0.38,0.47,-0.41,4.49
-14.59,-8.05,-0.58,0.48,-0.51,4.71
-13.58,-8.37,-1.15,0.48,-0.56,4.93
-12.68,-8.75,-1.70,0.47,-0.51,5.16
-11.82,-9.38,-1.97,0.49,-0.48,5.40
-10.83,-10.16,-2.59,0.53,-0.55,5.64
-9.55,-10.75,-3.42,0.54,-0.54,5.80
-8.36,-10.95,-4.00,0.50,-0.45,5.89
-7.33,-10.60,-4.30,0.43,-0.37,5.96
-6.52,-9.77,-4.48,0.33,-0.28,6.00
-5.87,-8.85,-4.45,0.19,-0.14,6.03
-5.38,-8.17,-4.12,0.03,-0.00,6.04
-5.02,-7.78,-3.90,-0.14,0.10,6.05
-4.65,-7.48,-3.48,-0.33,0.13,6.05
-4.14,-7.13,-2.85,-0.52,0.08,6.03
-3.46,-6.59,-1.91,-0.66,-0.09,5.97
-2.65,-5.86,-1.03,-0.76,-0.35,5.86
-1.76,-5.03,-0.42,-0.83,-0.58,5.74
-0.78,-4.15,-0.37,-0.89,-0.72,5.60
0.14,-3.27,-0.66,-1.00,-0.62,5.45
0.49,-2.40,-0.23,-1.11,-0.41,5.34
0.60,-1.68,0.78,-1.19,-0.29,5.26
1.13,-1.27,2.32,-1.21,-0.33,5.18
2.57,-1.10,3.96,-1.17,-0.52,4.99
4.53,-0.85,5.71,-1.05,-0.80,4.70
6.87,-0.40,7.42,-0.85,-1.12,4.35
9.23,0.29,8.49,-0.60,-1.32,3.96
11.20,1.04,8.94,-0.35,-1.33,3.58
13.21,1.65,9.07,-0.10,-1.18,3.16
15.40,2.35,9.02,0.11,-0.94,2.65
17.50,3.22,9.14,0.31,-0.65,2.04
18.86,4.20,9.34,0.49,-0.36,1.36
19.09,5.05,9.60,0.64,-0.12,0.68
18.57,5.55,9.50,0.77,0.08,0.01
17.61,5.77,8.89,0.85,0.21,-0.63
16.36,5.84,7.84,0.87,0.31,-1.25
14.88,5.92,6.87,0.86,0.35,-1.84
13.26,6.14,5.93,0.84,0.25,-2.39
11.57,6.54,4.90,0.79,0.06,-2.90
9.74,7.06,3.86,0.71,-0.17,-3.33
7.89,7.59,2.99,0.58,-0.39,-3.66
6.29,7.88,2.72,0.42,-0.60,-3.85
4.98,7.27,2.72,0.46,-0.96,-4.04
3.89,6.47,1.90,0.36,-1.37,-4.24
3.00,5.99,1.52,0.19,-1.64,-4.42
2.28,5.89,1.29,0.02,-1.92,-4.53
1.82,5.71,0.77,-0.18,-2.09,-4.56
1.73,5.26,0.44,-0.42,-2.07,-4.51
1.94,4.51,-0.05,-0.71,-1.87,-4.47
2.10,3.53,-0.37,-1.05,-1.39,-4.51
1.60,2.48,-0.37,-1.39,-0.75,-4.63
0.54,1.38,-0.19,-1.66,-0.02,-4.76
-0.74,0.28,0.11,-1.84,0.63,-4.87
-1.83,-1.36,0.36,-1.89,1.14,-4.97
-2.09,-3.13,-0.09,-1.89,1.51,-5.33
-3.89,-3.96,0.00,-1.79,1.95,-5.77
-6.02,-4.55,-0.28,-1.65,2.32,-5.87
-7.96,-5.26,-0.63,-1.54,2.83,-5.73
-9.43,-6.14,0.14,-1.42,3.28,-5.47
-10.88,-6.61,0.93,-1.24,3.49,-5.38
-13.32,-6.36,1.69,-0.94,3.34,-5.31
-15.94,-5.54,1.82,-0.54,2.85,-5.08
-17.50,-4.66,1.70,-0.09,2.20,-4.64
-17.56,-3.89,1.16,0.29,1.54,-4.10
-17.36,-2.87,0.04,0.45,1.18,-3.63
-17.97,-1.70,-0.64,0.40,1.21,-3.16
-19.22,-0.74,-0.24,0.27,1.29,-2.65
-20.77,-0.02,0.35,0.21,1.10,-2.12
-21.72,0.58,0.58,0.21,0.68,-1.58
-22.05,1.31,0.43,0.22,0.21,-1.07
-22.01,2.32,0.16,0.18,-0.13,-0.56
-21.72,3.39,0.30,0.11,-0.31,-0.06
-21.44,4.23,0.55,0.07,-0.39,0.41
-21.23,4.68,0.64,0.02,-0.37,0.86
-21.09,4.82,0.97,-0.04,-0.29,1.27
-21.03,4.74,1.47,-0.06,-0.24,1.65
-20.67,4.59,1.97,-0.04,-0.26,2.03
-19.98,4.36,2.17,0.04,-0.35,2.39
-19.00,3.99,1.92,0.13,-0.42,2.74
-18.05,3.38,1.79,0.21,-0.48,3.09
-16.82,2.67,1.22,0.25,-0.57,3.42
-15.61,2.05,0.98,0.27,-0.62,3.69
-14.34,1.39,0.57,0.29,-0.74,3.96
-12.98,0.73,0.04,0.29,-0.86,4.19
-11.55,0.09,-0.37,0.27,-1.00,4.40
-10.13,-0.52,-0.83,0.25,-1.13,4.56
-8.91,-1.07,-1.40,0.21,-1.21,4.69
-7.98,-1.58,-1.89,0.13,-1.15,4.82
-7.17,-2.10,-1.88,-0.01,-1.01,4.95
-6.37,-2.59,-1.58,-0.16,-0.89,5.05
-5.55,-3.01,-1.28,-0.27,-0.83,5.12
-4.66,-3.37,-1.35,-0.37,-0.78,5.17
-3.72,-3.70,-1.37,-0.48,-0.70,5.18
-2.68,-3.93,-1.24,-0.61,-0.60,5.16
-1.61,-3.98,-1.00,-0.74,-0.48,5.11
-0.57,-3.81,-0.16,-0.86,-0.40,5.00
0.35,-3.30,1.45,-0.90,-0.52,4.83
1.00,-2.42,2.47,-0.83,-0.87,4.61
1.56,-1.39,2.49,-0.69,-1.17,4.37
2.57,-0.46,2.61,-0.54,-1.30,4.09
4.38,0.44,3.54,-0.38,-1.39,3.73
6.81,1.72,4.42,-0.20,-1.52,3.26
8.63,3.23,4.56,-0.08,-1.49,2.84
11.24,5.11,5.06,0.03,-1.38,2.38
13.56,7.14,4.75,0.08,-1.08,1.91
15.37,8.99,4.96,0.05,-0.48,1.44
16.64,10.30,6.36,-0.00,0.05,0.96
17.46,11.11,8.02,0.03,0.28,0.47
17.76,11.57,9.11,0.15,0.21,-0.05
17.56,11.80,9.26,0.31,-0.06,-0.55
16.97,11.83,8.60,0.44,-0.33,-1.00
16.00,11.66,7.67,0.52,-0.50,-1.40
14.69,11.25,6.86,0.54,-0.59,-1.73
13.24,10.59,6.17,0.52,-0.63,-1.99
11.68,9.73,5.49,0.46,-0.64,-2.21
10.10,8.91,4.79,0.38,-0.68,-2.41
8.71,7.91,3.58,0.23,-0.60,-2.54
7.50,6.49,4.01,0.14,-0.62,-2.87
5.17,6.11,3.21,0.11,-0.96,-3.17
3.70,6.02,0.93,-0.10,-1.07,-3.14
3.52,5.48,-0.12,-0.46,-0.78,-3.02
3.73,4.42,-0.05,-0.79,-0.30,-3.05
3.17,3.08,-0.19,-1.02,0.20,-3.24
1.82,1.70,-0.45,-1.24,0.69,-3.48
0.50,0.47,-0.59,-1.45,1.14,-3.68
0.13,-1.44,0.00,-1.55,1.45,-3.96
-0.73,-2.64,0.44,-1.50,1.49,-4.55
-1.91,-2.75,0.14,-1.44,1.39,-4.97
-2.61,-2.78,-0.30,-1.41,1.43,-5.12
-3.21,-3.11,-1.02,-1.39,1.69,-5.19
-3.99,-3.66,-1.61,-1.42,2.14,-5.22
-4.62,-4.15,-1.73,-1.42,2.54,-5.23
-5.04,-4.44,-1.89,-1.38,2.87,-5.25
-5.70,-4.55,-1.73,-1.28,3.13,-5.28
-6.97,-4.76,-1.12,-1.14,3.26,-5.28
-8.89,-5.09,-0.03,-0.96,3.11,-5.21
-11.43,-5.25,0.75,-0.75,2.66,-5.12
-14.44,-5.19,1.16,-0.54,2.10,-4.97
-16.48,-4.77,0.81,-0.39,1.58,-4.63
-17.16,-4.21,-0.42,-0.37,1.46,-4.21
-17.63,-3.96,-1.08,-0.44,1.70,-3.75
-18.96,-4.04,-0.77,-0.49,1.94,-3.29
-21.27,-4.14,0.03,-0.46,1.91,-2.80
-23.35,-3.98,1.01,-0.36,1.57,-2.23
-23.95,-3.38,1.58,-0.22,1.01,-1.60
-23.20,-2.32,1.37,-0.10,0.45,-1.00
-22.11,-1.11,0.69,-0.04,0.15,-0.45
-21.22,-0.05,0.18,-0.06,0.12,0.06
-20.58,0.64,0.12,-0.08,0.18,0.52
-20.09,1.00,0.15,-0.08,0.18,0.91
-19.56,1.13,-0.02,-0.05,0.13,1.28
-19.00,0.93,-0.35,-0.02,0.11,1.62
-18.79,0.24,-0.93,0.00,0.15,1.98
-18.91,-0.81,-1.44,0.00,0.21,2.37
-18.73,-2.07,-1.75,0.01,0.15,2.79
-18.11,-3.31,-2.39,0.02,-0.00,3.19
-17.11,-4.44,-3.27,0.00,-0.18,3.58
-15.86,-5.27,-4.13,-0.05,-0.35,3.91
-14.51,-5.66,-4.67,-0.12,-0.50,4.17
-13.00,-5.64,-4.96,-0.23,-0.64,4.40
-11.66,-5.35,-5.12,-0.35,-0.74,4.60
-10.43,-4.82,-5.02,-0.51,-0.78,4.78
-9.36,-4.10,-4.93,-0.71,-0.73,4.90
-8.52,-3.38,-4.63,-0.93,-0.58,4.99
-7.69,-2.89,-4.02,-1.17,-0.43,5.07
-6.93,-2.55,-3.17,-1.41,-0.30,5.13
-6.28,-2.32,-2.31,-1.65,-0.22,5.16
-5.66,-2.09,-1.14,-1.88,-0.19,5.17
-4.93,-1.80,1.04,-2.02,-0.34,5.17
-4.22,-1.45,2.08,-1.96,-0.83,5.12
-3.39,-1.15,1.30,-1.88,-1.11,5.04
-2.42,-0.89,0.69,-1.90,-1.04,4.96
-1.30,-0.67,1.23,-1.95,-0.79,4.87
-0.21,-0.45,2.69,-1.96,-0.61,4.74
0.98,-0.23,4.27,-1.95,-0.46,4.55
2.07,0.12,5.17,-1.92,-0.28,4.33
2.94,0.60,5.59,-1.89,0.04,4.05
3.63,1.25,6.85,-1.83,0.33,3.74
4.57,2.01,8.36,-1.71,0.42,3.37
5.77,2.82,9.70,-1.54,0.41,2.94
6.92,3.66,10.74,-1.32,0.38,2.47
7.72,4.45,11.71,-1.06,0.35,1.99
8.25,5.08,12.38,-0.75,0.24,1.51
8.86,5.62,12.91,-0.42,0.07,1.04
9.82,6.27,13.03,-0.09,-0.10,0.54
10.58,7.04,12.97,0.21,-0.18,0.01
10.56,7.71,12.77,0.48,-0.19,-0.51
9.79,8.01,12.37,0.71,-0.18,-0.98
8.66,7.98,12.02,0.92,-0.23,-1.40
7.40,7.69,11.61,1.10,-0.35,-1.79
6.10,7.22,11.17,1.27,-0.53,-2.15
4.82,6.64,10.50,1.43,-0.75,-2.47
3.61,6.03,9.69,1.57,-0.98,-2.77
2.59,5.45,8.63,1.67,-1.23,-3.05
1.80,4.87,7.39,1.73,-1.45,-3.32
1.52,3.94,6.49,1.80,-1.64,-3.63
0.77,3.25,5.55,1.85,-1.82,-4.07
-0.43,3.12,4.83,1.85,-1.96,-4.37
-1.51,3.04,4.15,1.82,-2.03,-4.48
-2.33,2.78,3.15,1.74,-2.02,-4.50
-3.05,2.55,2.78,1.64,-1.95,-4.49
-3.92,2.48,2.17,1.51,-1.85,-4.49
-5.04,2.54,1.57,1.34,-1.60,-4.43
-6.07,2.70,0.90,1.13,-1.31,-4.30
-6.62,2.93,0.18,0.90,-0.91,-4.12
-6.72,3.22,-0.13,0.65,-0.39,-3.92
-6.96,3.54,0.27,0.44,0.18,-3.72
-8.19,3.52,1.04,0.27,0.73,-3.51
-10.36,3.13,1.61,0.14,1.16,-3.25
-12.74,2.78,1.96,0.06,1.31,-2.95
-14.23,2.72,2.46,0.05,1.09,-2.59
-14.62,2.87,2.50,0.11,0.62,-2.19
-14.65,3.32,1.87,0.15,0.17,-1.78
-15.02,4.06,1.43,0.16,-0.13,-1.36
-15.53,4.80,1.10,0.17,-0.38,-0.89
-15.35,5.29,0.71,0.18,-0.61,-0.40
-14.45,5.74,0.38,0.18,-0.79,0.04
-13.41,6.36,-0.08,0.16,-0.85,0.44
-12.61,7.03,-0.29,0.11,-0.76,0.88
-12.10,7.43,-0.34,0.04,-0.62,1.37
-11.66,7.44,-0.45,-0.05,-0.47,1.87
-11.14,7.21,-0.36,-0.20,-0.30,2.31
-10.53,6.89,0.12,-0.35,-0.24,2.69
-9.83,6.51,0.47,-0.49,-0.27,3.04
-8.94,6.17,1.05,-0.63,-0.35,3.37
-7.96,5.98,1.62,-0.76,-0.47,3.64
-6.97,5.86,2.38,-0.86,-0.59,3.85
-5.96,5.72,2.86,-0.93,-0.73,4.03
-4.85,5.55,2.87,-1.00,-0.77,4.14
-3.74,5.43,2.47,-1.09,-0.66,4.21
-2.79,5.37,1.83,-1.22,-0.35,4.24
-2.07,5.30,1.42,-1.41,0.14,4.27
-1.51,5.12,1.40,-1.64,0.75,4.30
-1.19,4.77,1.83,-1.89,1.39,4.32
-1.12,4.27,3.38,-2.12,1.92,4.31
-0.88,3.64,5.60,-2.25,2.10,4.25
-0.12,3.06,8.23,-2.23,1.83,4.11
1.39,2.64,9.59,-2.07,1.23,3.87
3.26,2.55,9.43,-1.84,0.71,3.53
4.96,2.92,8.64,-1.62,0.46,3.14
6.20,3.62,8.70,-1.38,0.40,2.76
7.32,4.32,9.27,-1.13,0.36,2.36
8.53,4.74,10.33,-0.84,0.30,1.92
9.67,4.92,11.14,-0.52,0.19,1.40
10.36,5.04,11.54,-0.19,0.03,0.82
10.53,5.20,11.51,0.15,-0.17,0.22
10.39,5.40,11.42,0.46,-0.39,-0.38
10.04,5.47,11.21,0.76,-0.60,-0.98
9.55,5.29,10.98,1.03,-0.82,-1.55
8.89,4.88,10.56,1.27,-1.05,-2.10
8.02,4.40,9.88,1.48,-1.30,-2.61
6.85,3.88,9.34,1.67,-1.57,-3.09
5.51,3.39,8.62,1.83,-1.89,-3.55
4.07,3.09,7.59,1.94,-2.16,-3.96
2.63,2.99,6.59,1.99,-2.34,-4.25
1.14,3.00,5.46,1.98,-2.38,-4.42
-0.43,3.13,4.24,1.92,-2.26,-4.49
-1.97,3.45,3.13,1.80,-2.03,-4.46
-3.17,4.01,2.36,1.65,-1.82,-4.35
-3.70,4.73,1.67,1.48,-1.69,-4.21
-3.59,5.50,1.37,1.32,-1.56,-4.05
-3.36,6.19,0.88,1.15,-1.34,-3.88
-3.45,6.75,0.36,0.95,-1.01,-3.69
-3.73,7.07,-0.02,0.75,-0.70,-3.48
-4.09,7.21,0.08,0.56,-0.47,-3.32
-4.71,7.18,0.84,0.40,-0.33,-3.14
-5.72,6.94,1.66,0.22,-0.18,-2.92
-7.06,6.70,2.39,0.03,-0.09,-2.66
-8.14,6.40,2.62,-0.10,-0.12,-2.38
-8.52,5.95,2.58,-0.20,-0.23,-2.11
-8.60,5.55,2.21,-0.29,-0.29,-1.86
-9.06,5.37,1.98,-0.40,-0.16,-1.57
-10.14,5.28,2.25,-0.51,0.10,-1.22
-11.51,5.18,2.70,-0.60,0.35,-0.80
-12.71,4.81,3.13,-0.69,0.58,-0.32
-13.18,4.28,3.49,-0.75,0.63,0.18
-12.86,3.95,3.55,-0.78,0.56,0.64
-12.16,4.13,3.62,-0.79,0.46,1.06
-11.46,4.67,3.55,-0.78,0.39,1.46
-10.93,5.25,3.49,-0.77,0.41,1.85
-10.48,5.59,3.46,-0.75,0.47,2.23
-9.89,5.66,3.40,-0.76,0.54,2.58
-9.14,5.64,3.35,-0.79,0.62,2.88
-8.32,5.63,3.25,-0.85,0.75,3.13
-7.52,5.61,3.14,-0.93,0.94,3.33
-6.85,5.54,3.05,-1.03,1.20,3.52
-6.35,5.34,3.11,-1.16,1.48,3.69
-5.92,4.96,3.22,-1.30,1.77,3.85
-5.46,4.49,3.54,-1.45,1.99,3.98
-4.97,4.02,3.75,-1.60,2.17,4.07
-4.44,3.66,3.91,-1.75,2.28,4.14
aX,aY,aZ,gX,gY,gZ
-14.86,6.15,-0.99,0.07,0.60,-0.99
-14.83,5.83,-0.83,-0.12,0.76,-0.48
-14.39,5.73,-0.87,-0.31,0.82,0.07
-13.68,5.77,-0.95,-0.51,0.87,0.62
-12.79,5.72,-0.96,-0.71,0.95,1.18
-11.80,5.47,-0.84,-0.92,1.04,1.72
-10.67,5.14,-0.67,-1.14,1.13,2.20
-9.42,4.77,-0.50,-1.34,1.23,2.62
-8.16,4.44,-0.37,-1.55,1.39,2.98
-7.02,4.18,-0.04,-1.76,1.58,3.27
-6.05,4.00,0.37,-1.97,1.79,3.50
-5.37,3.86,0.89,-2.18,2.02,3.65
-5.02,3.74,1.69,-2.37,2.19,3.76
-4.61,3.71,3.17,-2.50,2.20,3.83
-3.61,3.70,5.21,-2.53,1.94,3.82
-1.89,3.78,7.38,-2.42,1.39,3.70
0.46,4.08,8.95,-2.16,0.70,3.44
3.15,4.83,10.15,-1.81,0.07,3.08
6.01,6.07,10.96,-1.38,-0.47,2.62
8.48,7.48,11.27,-0.91,-0.79,2.10
10.11,8.64,11.21,-0.48,-0.89,1.53
10.77,9.26,10.90,-0.11,-0.81,0.92
10.70,9.45,10.83,0.21,-0.71,0.29
10.32,9.40,10.76,0.50,-0.70,-0.36
9.68,9.13,10.49,0.77,-0.74,-1.02
8.53,8.64,9.93,1.02,-0.84,-1.67
6.96,7.94,8.98,1.25,-1.01,-2.25
5.45,6.82,7.91,1.44,-1.22,-2.77
3.64,5.67,6.56,1.61,-1.51,-3.36
1.64,5.34,5.14,1.67,-1.75,-3.80
0.10,5.34,3.81,1.65,-1.88,-4.01
-1.00,5.22,2.44,1.57,-1.89,-4.12
-1.93,5.07,1.39,1.42,-1.78,-4.19
-3.07,4.82,0.86,1.26,-1.56,-4.22
-4.54,4.47,0.45,1.07,-1.24,-4.14
-6.49,4.09,0.07,0.87,-0.88,-3.95
-8.85,3.82,-0.12,0.68,-0.52,-3.64
-11.05,3.63,0.09,0.49,-0.29,-3.21
-12.54,3.59,0.42,0.33,-0.31,-2.71
-13.41,3.78,0.22,0.16,-0.37,-2.18
-14.03,4.15,-0.01,-0.03,-0.30,-1.60
-14.42,4.60,-0.23,-0.24,-0.11,-0.98
-14.46,4.64,0.10,-0.46,0.15,-0.42
-14.81,4.22,0.50,-0.66,0.26,0.18
-13.99,3.51,0.74,-0.84,0.24,0.79
-12.63,3.50,0.76,-1.05,0.25,1.24
-11.43,4.11,0.77,-1.27,0.48,1.58
-10.47,4.70,0.98,-1.49,0.84,1.94
-9.59,4.77,1.31,-1.70,1.25,2.33
-8.83,4.53,1.85,-1.89,1.63,2.70
-8.24,4.27,2.53,-2.05,1.91,3.02
-7.72,4.15,3.19,-2.18,2.05,3.31
-7.07,4.17,3.71,-2.28,2.10,3.57
-6.27,4.19,4.61,-2.36,2.09,3.77
-5.09,4.16,5.91,-2.39,1.95,3.88
-3.51,4.18,7.43,-2.35,1.66,3.90
-1.40,4.24,8.94,-2.18,1.20,3.83
1.19,4.47,9.78,-1.93,0.68,3.64
4.03,5.09,10.24,-1.59,0.28,3.34
6.64,6.17,10.62,-1.20,-0.01,2.94
8.49,7.40,10.78,-0.81,-0.17,2.49
9.63,8.47,11.04,-0.43,-0.24,1.98
9.99,9.18,11.11,-0.08,-0.27,1.41
9.49,9.48,10.98,0.23,-0.33,0.81
8.48,9.46,10.58,0.52,-0.46,0.24
7.41,9.25,10.01,0.76,-0.66,-0.30
6.45,8.94,9.34,0.98,-0.89,-0.81
5.60,8.59,8.51,1.16,-1.13,-1.29
4.71,8.21,7.69,1.31,-1.35,-1.73
3.70,7.77,6.85,1.41,-1.53,-2.11
2.89,6.98,6.02,1.48,-1.68,-2.46
2.09,6.19,4.88,1.51,-1.84,-2.86
1.41,5.93,3.68,1.46,-1.95,-3.22
1.10,5.86,2.72,1.36,-1.99,-3.49
0.97,5.61,1.65,1.21,-1.92,-3.70
0.66,5.20,1.40,1.01,-1.74,-3.86
-0.33,4.64,1.60,0.81,-1.53,-3.96
-1.74,3.91,2.01,0.58,-1.29,-3.99
-3.14,3.22,2.24,0.38,-1.16,-4.00
-4.19,2.70,1.63,0.17,-0.99,-3.99
-4.70,2.38,1.43,-0.03,-0.77,-3.96
-5.15,2.12,1.14,-0.22,-0.44,-3.87
-6.26,1.77,1.35,-0.40,0.09,-3.72
-8.11,1.13,1.64,-0.56,0.65,-3.48
-10.41,0.14,2.14,-0.67,1.18,-3.21
-12.96,-0.70,2.75,-0.72,1.53,-2.94
-14.97,-1.04,3.54,-0.75,1.60,-2.61
-16.08,-1.11,4.13,-0.70,1.38,-2.14
-16.63,-1.24,4.27,-0.61,1.16,-1.52
-17.27,-1.30,4.52,-0.54,0.94,-0.87
-17.84,-0.92,4.50,-0.47,0.60,-0.23
-17.74,-0.15,4.32,-0.43,0.17,0.40
-16.63,0.58,4.00,-0.42,-0.09,0.98
-15.50,1.00,4.02,-0.43,-0.03,1.50
-15.23,1.16,4.24,-0.44,0.19,1.96
-15.50,1.31,4.28,-0.49,0.44,2.41
-15.70,1.86,4.21,-0.54,0.57,2.90
-14.99,2.29,3.77,-0.58,0.48,3.45
-13.23,2.59,3.18,-0.58,0.25,3.95
-10.75,3.06,2.36,-0.63,0.05,4.35
-8.03,3.69,2.04,-0.75,-0.01,4.63
-5.51,4.27,2.06,-0.91,0.00,4.80
-3.41,4.70,2.50,-1.08,0.05,4.87
-1.53,4.95,3.42,-1.22,0.03,4.82
0.32,5.21,4.75,-1.31,-0.13,4.67
2.36,5.53,6.32,-1.28,-0.44,4.42
4.49,5.87,7.62,-1.11,-0.89,4.07
6.72,6.21,8.29,-0.86,-1.38,3.63
8.37,6.39,7.86,-0.60,-1.78,3.13
10.54,6.61,7.65,-0.38,-2.10,2.59
13.26,7.29,7.19,-0.16,-2.34,1.88
15.40,8.29,7.02,0.02,-2.35,1.00
15.88,9.11,6.33,0.11,-2.11,0.08
14.69,9.20,5.45,0.09,-1.59,-0.75
12.45,8.44,6.21,0.06,-1.18,-1.41
10.33,7.30,6.17,0.11,-1.26,-1.97
8.75,6.05,5.59,0.16,-1.47,-2.50
7.75,4.59,4.93,0.22,-1.77,-3.14
6.20,4.16,3.91,0.23,-2.03,-3.78
5.12,4.10,2.83,0.17,-2.16,-4.19
4.72,3.73,2.06,0.08,-2.13,-4.50
4.13,3.13,0.71,-0.09,-1.84,-4.79
3.56,2.53,-0.53,-0.37,-1.21,-5.02
3.06,1.95,-1.13,-0.71,-0.40,-5.20
2.28,1.39,-1.22,-1.01,0.47,-5.36
1.04,0.79,-0.74,-1.21,1.23,-5.49
-0.56,0.11,0.52,-1.31,1.69,-5.56
-2.17,-0.68,1.95,-1.26,1.72,-5.56
-3.56,-1.46,2.73,-1.12,1.44,-5.53
-5.00,-2.22,2.61,-1.04,1.26,-5.45
-6.64,-2.93,2.02,-1.10,1.36,-5.31
-8.37,-3.54,1.83,-1.26,1.65,-5.08
-9.92,-3.78,1.85,-1.39,1.87,-4.82
-11.47,-3.59,1.81,-1.46,2.05,-4.53
-12.92,-3.33,2.45,-1.46,2.25,-4.16
-14.07,-3.32,3.84,-1.41,2.30,-3.69
-15.05,-3.60,4.98,-1.29,2.10,-3.18
-15.96,-3.69,4.99,-1.18,1.85,-2.68
-16.76,-3.22,4.52,-1.08,1.83,-2.15
-17.28,-2.43,3.69,-0.96,2.02,-1.53
-17.80,-1.83,2.73,-0.84,2.38,-0.85
-19.15,-1.89,2.00,-0.74,2.79,-0.18
-21.53,-2.48,1.90,-0.69,3.04,0.49
-23.81,-3.21,2.25,-0.61,2.89,1.16
-25.27,-3.57,2.78,-0.50,2.36,1.86
-24.87,-3.45,2.97,-0.38,1.53,2.60
-23.17,-2.99,2.23,-0.24,0.67,3.24
-21.36,-2.25,1.47,-0.17,-0.03,3.78
-19.64,-1.38,1.16,-0.10,-0.66,4.26
-17.87,-0.57,1.11,-0.03,-1.27,4.68
-15.68,0.13,1.15,0.07,-1.85,5.04
-13.19,0.55,0.78,0.20,-2.36,5.31
-10.57,0.62,0.11,0.31,-2.73,5.52
-7.85,0.59,-0.77,0.34,-2.88,5.65
-5.50,0.57,-1.76,0.25,-2.75,5.70
-3.70,0.62,-2.49,0.04,-2.37,5.70
-2.47,0.70,-2.04,-0.27,-1.89,5.70
-1.57,0.72,0.06,-0.53,-1.60,5.70
-0.79,0.61,3.49,-0.57,-1.81,5.65
0.30,0.45,4.96,-0.28,-2.66,5.50
2.17,0.40,4.12,0.06,-3.26,5.21
4.50,0.65,3.65,0.38,-3.60,4.83
6.92,1.37,2.69,0.68,-3.69,4.41
8.38,2.48,1.43,0.86,-3.50,3.99
10.49,3.72,0.36,0.89,-3.04,3.59
13.34,5.01,-0.34,0.87,-2.50,3.03
15.72,6.15,-1.32,0.71,-1.72,2.31
16.93,6.83,-1.25,0.40,-0.71,1.53
16.63,6.94,0.17,0.08,0.22,0.75
14.80,6.72,2.27,-0.16,0.77,0.02
12.22,6.37,4.34,-0.21,0.63,-0.63
10.30,5.96,4.36,-0.19,0.23,-1.24
9.19,5.44,4.50,-0.15,-0.25,-1.90
8.17,5.27,3.95,-0.12,-0.72,-2.62
7.12,5.52,3.12,-0.16,-1.04,-3.19
6.48,5.70,2.15,-0.28,-1.12,-3.55
6.00,5.52,1.35,-0.46,-0.95,-3.80
5.39,4.96,0.82,-0.66,-0.60,-4.00
5.03,3.95,0.41,-0.88,-0.11,-4.28
3.88,3.54,0.58,-1.12,0.55,-4.64
2.33,3.36,1.02,-1.33,1.31,-4.87
0.24,2.84,1.72,-1.49,2.16,-4.96
-2.38,1.96,2.72,-1.51,2.86,-4.96
-5.41,1.30,2.19,-1.42,3.46,-4.87
-8.25,1.13,2.23,-1.31,3.99,-4.69
-10.89,1.14,3.04,-1.06,4.05,-4.42
-13.39,0.86,3.15,-0.75,3.69,-4.01
-16.09,0.38,2.63,-0.52,3.40,-3.48
-19.07,-0.52,2.88,-0.36,3.16,-2.83
-21.72,-1.60,3.02,-0.22,2.50,-2.03
-23.12,-1.84,2.26,-0.13,1.56,-1.19
-22.96,-0.78,1.25,-0.12,0.60,-0.36
-21.46,0.80,0.23,-0.17,-0.17,0.43
-19.46,2.19,-0.71,-0.26,-0.60,1.12
-17.63,3.02,-0.87,-0.42,-0.75,1.76
-16.02,3.39,0.01,-0.58,-0.90,2.31
-14.54,3.71,1.14,-0.69,-1.18,2.77
-13.03,4.02,1.84,-0.72,-1.57,3.16
-11.35,4.20,1.91,-0.70,-1.96,3.52
-9.35,4.25,1.40,-0.67,-2.31,3.86
-7.28,4.24,1.41,-0.66,-2.52,4.14
-5.60,4.22,3.03,-0.56,-2.84,4.36
-4.18,4.09,4.01,-0.35,-3.30,4.52
-2.77,3.85,4.24,-0.09,-3.69,4.62
-0.84,3.51,3.98,0.18,-3.95,4.66
1.78,3.45,3.37,0.42,-4.02,4.56
4.95,3.87,2.47,0.57,-3.74,4.33
7.93,4.77,1.56,0.62,-3.13,4.02
9.83,5.76,0.82,0.53,-2.23,3.75
12.58,6.54,1.25,0.40,-1.36,3.39
14.66,7.12,1.56,0.25,-0.50,2.81
15.34,7.54,2.87,0.07,0.27,2.11
14.83,7.60,5.44,0.03,0.54,1.39
13.75,7.33,6.64,0.13,0.35,0.64
12.44,6.91,7.27,0.28,-0.07,-0.09
11.33,6.59,7.33,0.46,-0.64,-0.80
10.59,6.42,6.75,0.61,-1.19,-1.46
10.23,6.29,5.88,0.71,-1.58,-2.08
9.86,6.15,4.59,0.76,-1.73,-2.65
9.28,5.98,3.57,0.75,-1.64,-3.14
8.55,5.72,2.79,0.69,-1.38,-3.55
7.84,5.16,2.35,0.64,-1.01,-3.94
6.60,4.75,1.95,0.58,-0.63,-4.37
5.16,4.82,1.52,0.49,-0.23,-4.70
3.88,5.04,1.18,0.41,0.10,-4.93
2.29,5.37,0.09,0.28,0.50,-5.07
0.68,5.70,-0.65,0.07,0.98,-5.12
-0.64,5.84,-0.76,-0.14,1.38,-5.10
-1.57,5.52,-0.75,-0.31,1.62,-5.06
-2.14,4.71,-1.06,-0.44,1.82,-5.03
-2.80,3.52,-1.37,-0.59,2.05,-5.03
-4.07,2.36,-1.50,-0.80,2.23,-5.01
-5.94,1.48,-1.13,-1.05,2.27,-4.90
-7.98,0.51,-0.42,-1.25,2.11,-4.67
-9.90,-0.65,-0.46,-1.39,1.89,-4.42
-11.71,-1.79,-0.87,-1.55,1.83,-4.11
-13.53,-3.04,-0.91,-1.74,1.94,-3.66
-15.16,-4.37,-0.48,-1.90,2.02,-3.12
-17.07,-5.20,0.54,-1.97,1.95,-2.56
-19.21,-5.34,1.61,-1.90,1.66,-1.91
-20.85,-4.98,2.49,-1.75,1.20,-1.16
-21.37,-4.19,3.14,-1.56,0.63,-0.37
-20.91,-3.00,3.35,-1.35,0.09,0.35
-20.15,-1.49,2.90,-1.16,-0.22,1.02
-19.67,-0.02,2.57,-1.03,-0.24,1.67
-19.74,1.01,2.64,-0.94,-0.08,2.33
-20.01,1.54,2.87,-0.86,0.03,2.99
-19.77,1.88,3.11,-0.80,-0.03,3.63
-18.72,2.36,3.04,-0.76,-0.27,4.23
-17.09,2.88,2.49,-0.75,-0.55,4.78
-15.01,3.18,1.70,-0.81,-0.79,5.33
-12.42,3.04,1.08,-0.92,-0.95,5.84
-9.56,2.33,0.75,-1.08,-1.06,6.27
-6.65,1.36,0.28,-1.28,-1.14,6.59
-4.09,0.45,-0.07,-1.55,-1.09,6.79
-2.28,-0.41,0.84,-1.81,-1.01,6.85
-1.47,-1.21,1.24,-1.91,-1.23,6.80
-0.71,-2.09,0.02,-2.00,-1.37,6.71
0.55,-3.00,-0.69,-2.13,-1.30,6.61
2.59,-3.73,-0.76,-2.22,-1.23,6.45
4.70,-3.96,0.44,-2.22,-1.24,6.22
6.39,-3.66,1.72,-2.14,-1.24,5.94
7.45,-2.99,3.49,-2.02,-1.21,5.63
8.50,-2.09,4.83,-1.85,-1.18,5.26
9.90,-1.00,5.84,-1.64,-1.10,4.81
11.43,0.34,6.64,-1.41,-0.98,4.24
12.62,1.98,7.68,-1.18,-0.83,3.62
13.56,3.72,9.15,-0.92,-0.72,3.00
14.34,5.21,10.74,-0.63,-0.65,2.39
14.83,6.27,12.02,-0.31,-0.64,1.80
15.07,6.95,12.74,0.03,-0.68,1.23
15.27,7.43,12.82,0.35,-0.75,0.69
15.33,7.76,12.69,0.65,-0.81,0.17
15.29,7.81,12.69,0.93,-0.92,-0.32
15.42,7.45,12.50,1.20,-1.07,-0.80
15.44,6.82,11.90,1.43,-1.19,-1.30
15.07,6.11,11.01,1.60,-1.25,-1.81
14.43,5.39,10.05,1.71,-1.25,-2.30
13.73,4.56,9.04,1.75,-1.21,-2.77
12.92,3.57,7.88,1.73,-1.11,-3.22
11.97,2.47,6.77,1.66,-0.95,-3.63
10.94,1.35,5.76,1.56,-0.73,-3.98
9.91,0.29,4.89,1.45,-0.49,-4.29
8.87,-0.64,4.13,1.32,-0.22,-4.55
7.72,-1.35,3.47,1.19,0.07,-4.78
6.46,-1.83,3.26,1.08,0.33,-4.97
5.24,-2.16,3.03,1.01,0.47,-5.12
4.10,-2.39,2.63,0.95,0.56,-5.25
3.14,-2.56,2.14,0.87,0.61,-5.36
2.48,-2.65,1.39,0.77,0.68,-5.45
2.04,-2.65,0.41,0.63,0.86,-5.53
1.60,-2.58,-0.39,0.46,1.13,-5.59
1.18,-2.53,-1.06,0.28,1.46,-5.62
0.61,-2.62,-1.14,0.14,1.78,-5.64
-0.28,-2.95,-1.08,0.06,1.90,-5.63
-1.10,-4.17,-0.40,0.07,1.82,-5.67
-2.52,-4.97,0.46,0.12,1.33,-5.92
-4.42,-5.09,0.34,0.14,0.69,-6.10
-5.78,-5.26,-0.76,0.02,0.19,-6.13
-6.45,-5.46,-2.08,-0.27,0.13,-6.12
aX,aY,aZ,gX,gY,gZ
-16.84,-3.63,2.98,0.48,-0.26,3.88
-16.26,-3.90,3.03,0.53,-0.31,4.24
-15.65,-4.18,2.84,0.60,-0.42,4.63
-14.93,-4.55,2.63,0.69,-0.56,5.04
-13.77,-4.86,2.17,0.75,-0.72,5.41
-12.51,-4.98,1.67,0.80,-0.88,5.69
-11.11,-4.98,1.20,0.83,-1.03,5.93
-9.65,-5.04,0.90,0.86,-1.15,6.13
-8.45,-5.22,0.50,0.87,-1.19,6.31
-7.57,-5.43,0.32,0.85,-1.16,6.48
-6.96,-5.46,0.06,0.80,-1.17,6.68
-5.97,-5.53,-0.15,0.73,-1.23,6.87
-4.58,-5.70,-0.26,0.68,-1.34,7.01
-2.82,-5.93,-0.82,0.64,-1.47,7.06
-1.03,-6.05,-1.64,0.57,-1.42,7.03
0.37,-5.91,-2.05,0.45,-1.20,6.98
1.40,-5.64,-1.97,0.31,-0.94,6.89
2.10,-5.34,-1.60,0.18,-0.71,6.76
2.79,-5.08,-1.24,0.07,-0.58,6.60
3.84,-4.82,-0.70,-0.01,-0.55,6.42
5.36,-4.46,-0.07,-0.05,-0.60,6.21
7.23,-3.86,0.45,-0.03,-0.61,5.99
8.76,-3.02,1.28,0.01,-0.49,5.80
10.37,-2.27,2.40,0.08,-0.35,5.62
12.53,-1.65,3.37,0.18,-0.25,5.29
14.91,-0.93,3.97,0.27,-0.18,4.72
17.22,0.04,4.40,0.35,-0.09,3.99
19.25,1.22,4.72,0.43,0.03,3.18
20.68,2.48,5.14,0.49,0.18,2.33
21.47,3.60,5.68,0.55,0.32,1.50
21.72,4.53,6.18,0.59,0.42,0.72
21.61,5.31,6.49,0.62,0.45,0.01
21.18,5.94,6.44,0.64,0.43,-0.63
20.35,6.39,6.39,0.66,0.36,-1.21
19.34,6.66,6.20,0.66,0.22,-1.73
18.27,6.80,5.88,0.65,0.05,-2.20
17.06,6.87,5.51,0.62,-0.14,-2.64
15.73,6.90,5.03,0.57,-0.33,-3.01
14.29,6.82,4.56,0.50,-0.50,-3.33
12.86,6.62,4.15,0.41,-0.65,-3.58
11.52,6.22,3.94,0.31,-0.80,-3.79
10.25,5.69,3.61,0.22,-0.96,-3.99
9.07,5.09,3.34,0.11,-1.10,-4.15
8.07,4.46,2.95,-0.00,-1.22,-4.31
7.09,3.94,2.49,-0.13,-1.27,-4.45
6.27,3.45,1.87,-0.28,-1.23,-4.56
5.46,2.99,1.21,-0.47,-1.08,-4.63
4.66,2.47,0.59,-0.68,-0.86,-4.69
3.90,1.91,0.11,-0.89,-0.61,-4.73
3.25,1.29,-0.31,-1.10,-0.35,-4.78
2.62,0.60,-0.40,-1.29,-0.09,-4.83
1.88,-0.17,-0.49,-1.45,0.12,-4.87
1.06,-0.99,-0.62,-1.60,0.31,-4.90
0.45,-1.83,-0.88,-1.75,0.51,-4.91
0.13,-2.62,-1.15,-1.92,0.84,-4.96
-0.17,-3.31,-0.95,-2.07,1.23,-5.04
-0.96,-3.83,0.08,-2.12,1.43,-5.13
-2.09,-4.28,0.51,-2.06,1.29,-5.18
-3.24,-4.80,0.43,-1.98,1.12,-5.15
-4.07,-5.44,0.37,-1.95,1.08,-5.12
-4.92,-6.05,0.80,-1.94,1.14,-5.11
-6.17,-6.57,0.97,-1.92,1.30,-5.12
-7.88,-7.04,2.04,-1.88,1.60,-5.08
-10.18,-7.37,4.28,-1.70,1.62,-4.96
-12.28,-8.15,5.66,-1.39,1.26,-4.78
-13.79,-8.55,6.45,-1.10,0.80,-4.83
-15.54,-7.39,6.65,-0.85,0.34,-4.82
-16.89,-5.80,6.07,-0.66,0.10,-4.42
-17.27,-4.71,5.39,-0.55,0.22,-3.77
-17.21,-3.98,5.39,-0.47,0.49,-3.24
-17.87,-3.16,5.77,-0.36,0.71,-2.88
-19.18,-2.41,6.18,-0.23,0.91,-2.48
-20.53,-1.90,6.74,-0.08,1.06,-2.00
-21.54,-1.44,7.01,0.09,1.03,-1.49
-22.02,-0.93,6.62,0.25,0.93,-0.97
-22.12,-0.47,6.07,0.36,0.90,-0.45
-22.04,-0.25,5.65,0.45,0.92,0.06
-22.01,-0.44,5.21,0.52,0.98,0.54
-22.13,-0.95,4.89,0.57,1.06,1.02
-22.23,-1.64,4.63,0.62,1.11,1.53
-22.25,-2.37,4.46,0.67,1.13,2.06
-21.98,-2.94,4.28,0.74,1.02,2.59
-21.24,-3.29,3.93,0.82,0.75,3.09
-19.93,-3.46,3.34,0.90,0.48,3.56
-18.32,-3.57,2.78,0.96,0.32,3.96
-16.80,-3.71,2.27,1.01,0.25,4.30
-15.53,-3.85,1.91,1.03,0.25,4.60
-14.45,-3.92,1.54,1.03,0.24,4.87
-13.38,-3.92,1.09,1.02,0.19,5.11
-12.13,-3.83,0.52,1.01,0.08,5.35
-10.57,-3.58,-0.02,0.98,-0.01,5.54
-9.05,-3.29,-0.44,0.94,-0.03,5.67
-7.75,-3.04,-0.76,0.88,-0.00,5.77
-6.74,-2.84,-0.96,0.79,0.07,5.83
-5.86,-2.70,-1.07,0.71,0.08,5.87
-4.87,-2.59,-1.53,0.60,0.08,5.87
-3.73,-2.42,-1.75,0.45,0.15,5.83
-2.53,-2.22,-1.78,0.29,0.24,5.75
-1.55,-2.01,-1.79,0.12,0.36,5.61
-0.87,-1.74,-1.65,-0.06,0.48,5.46
-0.36,-1.42,-1.27,-0.22,0.53,5.33
0.16,-1.07,-0.93,-0.37,0.51,5.21
0.62,-0.75,-0.58,-0.51,0.48,5.10
1.02,-0.53,-0.61,-0.67,0.48,5.02
1.50,-0.45,-0.66,-0.87,0.59,4.98
2.06,-0.37,-0.58,-1.09,0.75,4.96
2.65,-0.28,0.27,-1.28,0.90,4.95
3.35,-0.12,2.04,-1.35,0.83,4.95
4.46,0.04,3.78,-1.29,0.63,4.90
5.94,0.23,5.30,-1.17,0.45,4.80
7.83,0.48,6.54,-1.02,0.29,4.63
10.32,0.95,7.37,-0.83,0.18,4.40
13.21,1.77,7.85,-0.62,0.14,4.10
16.99,2.83,8.09,-0.43,0.19,3.67
20.13,4.19,8.20,-0.30,0.39,3.02
21.66,5.56,8.50,-0.21,0.63,2.25
21.83,6.36,8.94,-0.12,0.79,1.47
21.29,6.45,9.13,-0.01,0.80,0.73
20.30,6.27,8.73,0.07,0.71,0.02
18.87,6.11,8.15,0.12,0.56,-0.64
17.38,6.04,7.44,0.14,0.34,-1.23
16.16,6.00,6.90,0.14,0.07,-1.74
15.20,5.94,6.61,0.14,-0.25,-2.20
14.33,5.82,6.34,0.12,-0.54,-2.61
13.32,5.58,6.08,0.09,-0.79,-2.97
12.23,5.35,5.67,0.04,-1.00,-3.28
11.23,5.18,5.32,-0.03,-1.21,-3.57
10.36,5.07,4.92,-0.11,-1.39,-3.86
9.56,4.99,4.59,-0.21,-1.52,-4.13
8.81,4.82,4.29,-0.33,-1.56,-4.40
8.11,4.51,3.93,-0.46,-1.54,-4.65
7.41,4.09,3.52,-0.61,-1.42,-4.90
6.71,3.75,3.33,-0.75,-1.26,-5.13
5.93,3.58,2.92,-0.90,-1.03,-5.29
4.94,3.48,2.63,-1.06,-0.67,-5.33
4.01,3.20,2.49,-1.22,-0.23,-5.22
3.13,2.61,2.56,-1.31,0.21,-5.03
2.39,1.73,2.40,-1.36,0.62,-4.82
1.69,0.70,2.09,-1.35,0.98,-4.66
0.98,-0.34,1.69,-1.30,1.28,-4.57
0.36,-1.30,1.03,-1.20,1.50,-4.56
-0.09,-2.10,0.35,-1.09,1.67,-4.63
-0.66,-2.64,-0.19,-0.98,1.80,-4.73
-0.13,-4.33,-0.17,-0.77,1.85,-5.04
-1.54,-4.33,-0.60,-0.68,1.89,-5.64
-3.27,-3.56,-0.64,-0.62,2.02,-5.78
-4.58,-3.48,0.50,-0.52,2.11,-5.64
-6.12,-4.13,2.47,-0.24,1.66,-5.47
-8.08,-4.78,2.73,0.09,0.92,-5.41
-9.70,-4.76,2.16,0.27,0.27,-5.28
-10.19,-4.09,1.37,0.27,-0.10,-5.04
-9.93,-3.35,0.69,0.14,-0.05,-4.72
-9.61,-3.07,0.07,-0.07,0.48,-4.44
-10.91,-3.17,0.85,-0.27,1.26,-4.21
-13.56,-3.70,2.48,-0.29,1.70,-3.92
-16.51,-4.10,3.51,-0.18,1.72,-3.56
-18.90,-3.52,4.10,-0.03,1.46,-3.14
-20.25,-2.00,4.05,0.12,1.02,-2.66
-20.60,-0.22,3.49,0.22,0.62,-2.13
-20.40,1.15,3.22,0.24,0.40,-1.60
-20.22,1.83,3.32,0.22,0.29,-1.11
-20.24,1.98,3.53,0.18,0.25,-0.67
-20.45,1.84,3.89,0.18,0.19,-0.27
-20.95,1.57,4.09,0.25,0.07,0.14
-21.57,1.02,3.97,0.35,-0.07,0.62
-21.84,0.30,3.81,0.44,-0.17,1.14
-21.71,-0.28,3.76,0.52,-0.27,1.65
-21.17,-0.71,3.51,0.60,-0.33,2.18
-20.43,-1.16,3.17,0.68,-0.35,2.74
-19.45,-1.69,2.66,0.71,-0.34,3.29
-18.41,-2.06,2.45,0.73,-0.38,3.77
-17.44,-2.31,2.08,0.76,-0.51,4.20
-16.16,-2.50,1.53,0.77,-0.68,4.66
-14.49,-2.63,0.96,0.76,-0.85,5.05
-12.68,-2.65,0.39,0.73,-0.99,5.35
-10.85,-2.55,0.12,0.69,-1.09,5.59
-9.01,-2.32,-0.35,0.63,-1.17,5.77
-7.42,-2.06,-0.60,0.56,-1.17,5.89
-6.34,-1.96,-0.79,0.49,-1.14,5.98
-5.60,-2.05,-1.05,0.39,-1.06,6.06
-4.78,-2.19,-0.85,0.29,-1.01,6.12
-3.68,-2.33,-0.73,0.22,-1.03,6.14
-2.34,-2.45,-0.68,0.15,-1.03,6.08
-1.09,-2.46,-0.53,0.10,-0.99,5.95
-0.11,-2.41,-0.60,0.05,-0.92,5.82
0.59,-2.32,-0.38,-0.01,-0.81,5.71
1.19,-2.25,-0.28,-0.06,-0.70,5.64
1.71,-2.22,-0.02,-0.09,-0.56,5.61
2.18,-2.16,0.66,-0.09,-0.50,5.62
2.70,-2.08,1.68,-0.00,-0.54,5.67
3.57,-2.01,2.75,0.16,-0.67,5.76
5.35,-1.99,3.86,0.36,-0.97,5.78
8.18,-1.86,4.55,0.63,-1.21,5.61
11.97,-1.29,4.32,0.88,-1.22,5.23
16.49,0.00,4.01,1.07,-0.96,4.64
20.51,2.14,3.18,1.20,-0.53,3.86
23.11,4.74,2.68,1.22,-0.11,3.01
24.83,7.03,2.36,1.20,0.13,2.06
25.01,8.50,1.68,1.07,0.34,1.06
24.42,9.08,1.50,0.80,0.53,0.11
22.95,9.09,2.09,0.48,0.71,-0.75
20.37,8.77,4.20,0.32,0.53,-1.42
18.09,8.34,4.11,0.26,0.00,-1.91
16.38,8.09,3.76,0.15,-0.49,-2.28
15.16,7.95,3.25,-0.01,-0.90,-2.59
14.05,7.66,2.53,-0.21,-1.15,-2.89
12.78,7.35,1.77,-0.44,-1.27,-3.14
11.52,7.00,1.13,-0.70,-1.29,-3.33
10.26,6.53,0.73,-0.97,-1.21,-3.47
8.90,5.95,0.53,-1.21,-1.09,-3.60
7.47,5.32,0.47,-1.44,-0.94,-3.73
6.08,4.74,0.56,-1.63,-0.80,-3.83
4.85,4.27,0.81,-1.78,-0.67,-3.91
3.76,3.93,1.10,-1.88,-0.60,-3.95
2.80,3.66,1.17,-1.94,-0.57,-3.94
2.00,3.39,1.09,-2.00,-0.51,-3.91
1.31,3.07,1.08,-2.08,-0.43,-3.85
0.79,2.69,1.15,-2.16,-0.34,-3.80
0.36,2.29,1.45,-2.23,-0.25,-3.77
0.03,1.96,1.85,-2.28,-0.19,-3.77
-0.33,1.72,2.26,-2.31,-0.17,-3.81
-0.70,1.62,2.52,-2.34,-0.19,-3.88
-1.02,1.66,2.65,-2.38,-0.23,-3.95
-1.15,1.77,2.47,-2.42,-0.25,-4.02
-1.08,1.84,2.02,-2.50,-0.16,-4.09
-0.87,1.78,1.23,-2.64,0.25,-4.16
-0.92,1.52,0.94,-2.82,0.99,-4.22
-2.08,0.92,2.48,-2.89,1.79,-4.25
-4.50,-0.27,5.09,-2.73,2.22,-4.18
-7.16,-2.72,7.81,-2.31,2.35,-4.08
-9.87,-5.44,9.54,-1.82,2.12,-4.42
-13.49,-5.79,9.98,-1.46,1.50,-4.57
-15.90,-4.79,9.73,-1.13,0.98,-4.04
-15.80,-4.07,9.19,-0.87,0.67,-3.15
-14.42,-3.49,8.37,-0.69,0.67,-2.43
-13.78,-2.57,7.94,-0.53,0.92,-1.86
-14.20,-1.80,7.71,-0.35,1.27,-1.31
-15.34,-1.35,7.82,-0.19,1.50,-0.75
-16.45,-0.90,7.95,-0.07,1.48,-0.19
-16.83,-0.31,7.90,0.03,1.31,0.38
-16.42,0.24,7.76,0.13,1.12,0.93
-15.83,0.52,7.34,0.23,1.01,1.42
-15.63,0.48,7.11,0.32,1.03,1.89
-15.90,0.25,7.19,0.41,1.06,2.37
-16.29,-0.03,7.28,0.50,1.02,2.85
-16.46,-0.28,7.52,0.61,0.87,3.36
-15.99,-0.53,7.45,0.74,0.56,3.85
-14.98,-0.72,6.89,0.89,0.21,4.31
-13.59,-0.87,6.11,1.01,-0.07,4.74
-11.88,-1.23,5.15,1.11,-0.27,5.14
-9.90,-1.52,4.10,1.16,-0.44,5.47
-7.86,-1.53,3.07,1.18,-0.64,5.70
-5.98,-1.26,1.90,1.16,-0.82,5.81
-4.44,-0.85,0.97,1.09,-0.88,5.85
-3.25,-0.51,0.50,1.03,-0.87,5.86
-2.22,-0.48,0.35,0.95,-0.82,5.85
-1.23,-0.70,0.34,0.89,-0.76,5.80
-0.30,-1.02,0.35,0.84,-0.70,5.68
0.43,-1.26,0.25,0.80,-0.61,5.53
1.01,-1.30,0.30,0.77,-0.51,5.41
1.60,-1.11,0.34,0.75,-0.42,5.34
2.18,-0.76,0.59,0.74,-0.30,5.29
2.85,-0.37,0.67,0.71,-0.18,5.28
3.74,-0.02,1.19,0.68,-0.00,5.27
5.02,0.28,2.22,0.67,0.05,5.23
7.01,0.66,2.76,0.70,0.03,5.07
9.55,1.21,2.84,0.71,0.18,4.75
12.17,2.10,3.10,0.71,0.51,4.30
14.49,3.34,3.43,0.67,0.90,3.75
16.27,4.67,4.26,0.62,1.26,3.17
17.78,5.78,5.25,0.56,1.46,2.56
19.21,6.52,6.29,0.53,1.52,1.92
20.36,6.95,6.91,0.51,1.45,1.24
20.82,7.27,7.18,0.51,1.31,0.55
20.25,7.56,7.23,0.51,1.06,-0.12
18.84,7.79,7.11,0.51,0.71,-0.71
17.21,7.92,6.82,0.49,0.27,-1.18
15.98,7.97,6.17,0.44,-0.17,-1.56
15.10,7.99,5.72,0.36,-0.56,-1.87
14.31,7.99,5.27,0.29,-0.93,-2.15
13.30,7.92,5.03,0.20,-1.23,-2.40
12.12,7.84,4.66,0.09,-1.48,-2.61
10.95,7.72,4.31,-0.03,-1.68,-2.80
9.91,7.59,3.86,-0.18,-1.81,-2.97
9.07,7.44,3.30,-0.35,-1.86,-3.14
8.34,7.26,2.83,-0.54,-1.83,-3.30
7.73,7.01,2.44,-0.74,-1.72,-3.44
7.03,6.67,1.89,-0.92,-1.56,-3.56
6.21,6.27,1.25,-1.11,-1.29,-3.61
5.40,5.73,0.73,-1.31,-0.94,-3.59
4.55,5.06,0.36,-1.49,-0.58,-3.54
3.57,4.28,0.03,-1.66,-0.22,-3.47
2.48,3.38,-0.32,-1.81,0.10,-3.38
1.48,2.37,-0.67,-1.95,0.40,-3.30
0.79,1.31,-0.84,-2.08,0.69,-3.26
0.51,0.31,-0.80,-2.21,0.94,-3.28
0.50,-0.50,-0.68,-2.31,1.17,-3.37
0.41,-1.06,-0.62,-2.40,1.39,-3.48
0.09,-1.45,-0.75,-2.47,1.61,-3.56
-0.34,-1.82,-0.75,-2.52,1.83,-3.61
aX,aY,aZ,gX,gY,gZ
-15.73,-6.73,-2.61,0.31,-1.51,5.43
-13.76,-7.58,-2.52,0.33,-1.62,5.76
-12.15,-8.40,-2.02,0.34,-1.75,6.01
-11.12,-8.76,-1.66,0.40,-2.02,6.17
-10.17,-8.67,-1.64,0.48,-2.26,6.28
-9.11,-8.30,-1.89,0.55,-2.40,6.40
-7.77,-7.96,-2.19,0.56,-2.32,6.53
-6.32,-7.67,-2.03,0.52,-2.07,6.62
-5.09,-7.24,-1.84,0.49,-1.84,6.65
-3.93,-6.77,-1.66,0.45,-1.56,6.63
-2.98,-6.32,-1.79,0.35,-1.22,6.54
-2.07,-5.81,-1.81,0.18,-0.84,6.39
-1.23,-5.20,-1.81,-0.07,-0.43,6.28
-0.42,-4.69,-1.64,-0.36,0.04,6.24
0.29,-4.38,-1.01,-0.69,0.55,6.27
0.96,-4.28,0.08,-1.02,1.01,6.30
1.92,-4.32,1.57,-1.32,1.38,6.23
3.41,-4.37,4.03,-1.50,1.60,5.91
4.34,-4.38,6.97,-1.56,1.51,5.49
5.48,-4.50,9.15,-1.47,1.12,5.11
7.43,-4.51,10.03,-1.33,0.60,4.70
10.12,-3.98,10.35,-1.18,0.16,4.30
13.64,-2.92,9.95,-1.00,0.24,3.84
16.75,-1.22,10.88,-0.88,0.64,3.27
18.78,0.67,12.31,-0.80,1.00,2.63
19.41,2.04,14.21,-0.72,1.25,2.05
19.37,2.50,15.85,-0.55,1.21,1.53
19.50,2.43,16.58,-0.29,0.88,1.01
19.96,2.60,16.21,-0.01,0.42,0.44
20.15,3.29,15.13,0.23,0.01,-0.18
19.63,4.14,13.97,0.39,-0.34,-0.78
18.58,4.70,12.90,0.49,-0.60,-1.34
17.15,4.81,12.17,0.54,-0.82,-1.85
15.50,4.61,11.60,0.56,-1.03,-2.31
13.77,4.28,11.12,0.58,-1.24,-2.71
12.08,3.96,10.80,0.60,-1.46,-3.06
10.52,3.56,10.38,0.64,-1.72,-3.40
9.11,3.01,9.90,0.69,-1.99,-3.73
7.83,2.39,9.15,0.72,-2.22,-4.06
6.75,1.75,7.83,0.67,-2.35,-4.38
6.01,1.01,6.24,0.52,-2.29,-4.70
5.59,0.47,4.39,0.31,-2.07,-5.05
5.16,0.46,2.12,-0.06,-1.52,-5.37
5.08,-0.43,0.94,-0.42,-0.66,-5.64
4.29,-1.54,-0.22,-0.66,0.21,-5.96
2.90,-2.55,-0.56,-0.87,1.07,-6.10
1.43,-3.65,-0.44,-0.94,1.63,-6.09
-0.04,-4.71,-0.78,-0.93,1.97,-6.06
-1.33,-5.60,-0.85,-0.90,2.18,-6.03
-2.13,-6.19,-1.03,-0.82,2.19,-6.03
-2.54,-6.45,-1.43,-0.74,2.18,-6.07
-3.07,-6.51,-1.76,-0.72,2.20,-6.13
-3.57,-7.01,-1.51,-0.69,2.18,-6.19
-4.77,-7.06,-0.94,-0.68,1.97,-6.40
-6.29,-6.72,-0.43,-0.68,1.61,-6.44
-7.67,-6.70,-0.11,-0.72,1.26,-6.35
-9.29,-7.08,0.21,-0.79,1.04,-6.19
-11.09,-7.63,0.73,-0.92,0.96,-5.90
-12.79,-7.91,1.67,-1.07,0.91,-5.51
-14.34,-7.66,2.86,-1.22,0.82,-5.10
-16.79,-7.04,4.01,-1.33,0.71,-4.72
-20.54,-6.00,5.78,-1.40,0.62,-4.25
-24.41,-4.67,8.55,-1.24,0.23,-3.58
-26.74,-3.18,9.83,-0.81,-0.58,-2.80
-27.14,-1.53,9.43,-0.39,-1.28,-2.01
-26.72,0.32,8.90,-0.10,-1.48,-1.23
-26.00,1.89,9.17,0.15,-1.36,-0.48
-25.40,2.91,9.14,0.40,-1.15,0.19
-24.91,3.28,9.00,0.62,-0.84,0.83
-24.29,2.96,8.82,0.84,-0.60,1.48
-23.20,2.13,8.43,1.03,-0.46,2.07
-21.77,1.18,7.90,1.20,-0.39,2.59
-20.22,0.25,7.41,1.34,-0.37,3.03
-18.68,-0.71,6.85,1.46,-0.40,3.42
-17.06,-1.62,6.15,1.54,-0.46,3.76
-15.42,-2.33,5.41,1.60,-0.57,4.03
-13.90,-2.82,4.67,1.63,-0.69,4.26
-12.63,-3.16,3.98,1.65,-0.82,4.48
-11.33,-3.50,3.14,1.64,-0.95,4.70
-10.01,-3.84,2.42,1.61,-1.03,4.88
-8.66,-4.15,1.94,1.56,-1.11,5.03
-7.24,-4.41,1.30,1.50,-1.19,5.15
-5.95,-4.50,1.00,1.42,-1.20,5.23
-4.93,-4.49,0.70,1.35,-1.28,5.30
-3.97,-4.43,-0.04,1.28,-1.29,5.36
-2.93,-4.31,-0.56,1.17,-1.21,5.40
-1.73,-4.15,-1.20,1.03,-1.09,5.42
-0.53,-3.89,-1.68,0.85,-0.86,5.39
0.39,-3.61,-1.97,0.64,-0.61,5.32
1.13,-3.39,-2.18,0.42,-0.32,5.22
1.75,-3.26,-1.46,0.17,-0.03,5.10
2.38,-3.26,0.04,-0.01,0.07,4.96
3.18,-3.35,1.82,-0.09,-0.05,4.79
4.19,-3.38,3.16,-0.08,-0.37,4.58
5.45,-3.31,3.45,-0.01,-0.66,4.34
7.07,-3.11,3.73,0.05,-0.79,4.08
9.16,-2.63,3.99,0.11,-0.85,3.76
11.53,-1.73,4.04,0.14,-0.69,3.39
13.55,-0.52,4.57,0.12,-0.39,3.00
15.17,0.83,5.42,0.07,-0.07,2.58
16.63,2.18,6.67,0.01,0.17,2.16
17.90,3.41,7.73,-0.02,0.27,1.72
18.94,4.33,9.51,-0.03,0.25,1.34
20.88,5.08,10.35,0.09,-0.06,0.87
22.19,5.87,10.22,0.20,-0.35,0.26
22.39,6.85,9.69,0.27,-0.59,-0.39
21.92,7.78,8.74,0.29,-0.78,-1.01
21.06,8.39,7.89,0.25,-0.89,-1.58
19.90,8.51,7.40,0.19,-0.98,-2.10
18.48,8.15,7.34,0.14,-1.12,-2.57
16.88,7.42,7.16,0.12,-1.35,-3.00
15.13,6.63,6.79,0.09,-1.62,-3.40
13.44,5.78,6.29,0.05,-1.89,-3.75
11.92,4.92,5.66,0.00,-2.18,-4.10
10.45,4.35,4.82,-0.09,-2.41,-4.43
9.26,4.02,3.83,-0.23,-2.52,-4.69
8.37,3.70,2.78,-0.44,-2.47,-4.88
7.64,3.29,1.80,-0.68,-2.27,-5.04
6.99,2.73,0.99,-0.97,-1.91,-5.18
6.31,2.05,0.36,-1.26,-1.43,-5.31
5.56,1.27,-0.12,-1.56,-0.87,-5.43
4.66,0.43,-0.52,-1.83,-0.28,-5.53
3.62,-0.45,-0.89,-2.06,0.32,-5.60
2.51,-1.35,-0.97,-2.25,0.93,-5.65
1.20,-2.25,-0.32,-2.30,1.44,-5.65
-0.06,-3.26,0.35,-2.22,1.65,-5.61
-1.46,-4.35,0.86,-2.04,1.64,-5.56
-2.90,-5.30,1.00,-1.83,1.39,-5.49
-3.90,-5.85,0.90,-1.65,1.04,-5.40
-4.39,-5.82,1.02,-1.56,0.70,-5.32
-4.85,-5.25,1.54,-1.58,0.46,-5.25
-5.76,-4.40,2.04,-1.70,0.37,-5.13
-7.21,-3.71,3.16,-1.84,0.44,-4.91
-9.03,-3.46,4.85,-1.88,0.40,-4.59
-10.97,-3.51,6.18,-1.80,0.17,-4.22
-12.96,-3.39,7.11,-1.68,-0.12,-3.83
-14.71,-2.78,7.94,-1.55,-0.38,-3.43
-16.02,-1.61,8.90,-1.41,-0.56,-3.00
-16.96,-0.21,9.96,-1.21,-0.66,-2.54
-18.01,1.14,10.76,-0.98,-0.64,-2.03
-18.82,2.15,11.65,-0.75,-0.54,-1.46
-19.14,2.98,12.35,-0.50,-0.45,-0.93
-19.20,3.77,12.71,-0.24,-0.39,-0.46
-19.14,4.43,12.63,0.04,-0.34,-0.03
-19.03,4.85,12.31,0.30,-0.31,0.40
-18.79,4.92,11.94,0.56,-0.28,0.83
-18.37,4.68,11.37,0.79,-0.26,1.25
-17.69,4.30,10.72,0.99,-0.23,1.64
-16.69,3.71,10.08,1.17,-0.16,2.00
-15.39,2.90,9.57,1.35,-0.11,2.19
-14.57,2.23,8.71,1.51,-0.09,2.32
-13.93,1.46,7.77,1.64,0.06,2.53
-13.40,0.51,7.19,1.72,0.27,2.77
-12.93,-0.49,6.70,1.78,0.39,3.03
-12.41,-1.45,6.19,1.81,0.46,3.31
-11.74,-2.38,5.76,1.83,0.46,3.60
-10.84,-3.21,5.35,1.83,0.41,3.88
-9.89,-3.89,4.82,1.84,0.35,4.13
-8.93,-4.37,4.13,1.81,0.32,4.37
-7.94,-4.62,3.56,1.78,0.29,4.60
-6.91,-4.64,2.98,1.74,0.26,4.82
-5.94,-4.60,2.37,1.69,0.30,5.04
-5.05,-4.64,1.95,1.62,0.38,5.28
-4.10,-4.66,1.47,1.52,0.46,5.48
-3.11,-4.57,1.24,1.42,0.57,5.61
-2.22,-4.45,0.83,1.29,0.69,5.69
-1.65,-4.20,0.25,1.13,0.86,5.72
-1.08,-3.89,-0.27,0.91,1.07,5.75
-0.18,-3.58,-0.26,0.66,1.28,5.74
0.83,-3.18,0.23,0.42,1.46,5.65
1.74,-2.62,1.03,0.20,1.60,5.55
2.52,-1.91,2.30,0.01,1.68,5.47
3.60,-1.26,3.73,-0.15,1.66,5.43
5.56,-0.80,4.98,-0.24,1.52,5.33
8.42,-0.33,6.26,-0.27,1.34,5.09
11.93,0.47,7.07,-0.23,1.23,4.70
14.98,1.59,7.63,-0.16,1.34,4.22
16.99,2.72,8.46,-0.10,1.52,3.71
18.59,3.69,9.59,-0.06,1.55,3.18
20.50,4.52,10.67,0.01,1.42,2.53
21.02,5.48,10.62,0.07,1.36,1.85
22.60,5.76,12.69,0.21,0.94,1.22
23.01,5.81,12.80,0.34,0.53,0.42
21.76,5.95,11.76,0.44,0.01,-0.43
19.85,6.40,9.97,0.44,-0.39,-1.17
18.60,6.74,8.81,0.40,-0.67,-1.81
16.93,6.59,8.01,0.35,-0.90,-2.37
14.76,6.00,7.39,0.29,-1.13,-2.83
12.66,5.28,6.87,0.24,-1.42,-3.21
10.98,4.62,6.24,0.16,-1.74,-3.54
9.55,4.04,5.66,0.07,-2.05,-3.86
8.29,3.49,4.87,-0.06,-2.30,-4.16
7.30,2.89,3.88,-0.24,-2.41,-4.44
6.64,2.21,2.66,-0.50,-2.31,-4.71
6.15,1.48,1.46,-0.82,-1.98,-4.97
5.84,0.40,0.35,-1.14,-1.43,-5.22
5.41,-1.15,-0.56,-1.42,-0.78,-5.65
4.08,-2.19,-1.45,-1.68,-0.11,-6.04
2.80,-2.95,-1.68,-1.90,0.51,-6.23
1.67,-3.83,-1.25,-1.98,0.92,-6.33
0.06,-4.78,-0.46,-1.94,1.19,-6.37
-2.25,-5.63,0.62,-1.82,1.29,-6.28
-4.72,-6.39,1.64,-1.71,1.11,-6.07
-6.68,-6.84,2.45,-1.67,0.78,-5.78
-7.42,-6.78,3.48,-1.68,0.33,-5.52
-6.90,-6.29,3.67,-1.76,-0.10,-5.32
-5.99,-5.94,3.70,-1.89,-0.21,-5.17
-6.05,-6.10,4.36,-1.98,-0.13,-5.02
-7.31,-6.39,4.32,-2.01,0.06,-4.79
-8.88,-7.01,4.15,-1.98,0.48,-4.41
-10.05,-7.68,4.95,-1.98,0.72,-4.13
-11.71,-7.11,6.16,-1.97,0.56,-3.98
-13.30,-5.66,7.23,-1.92,0.25,-3.75
-14.62,-3.88,8.85,-1.82,-0.02,-3.36
-15.65,-2.26,10.82,-1.63,-0.25,-2.86
-16.26,-1.28,12.45,-1.36,-0.50,-2.36
-16.00,-0.99,13.25,-1.07,-0.72,-2.21
-16.94,0.22,13.71,-0.78,-0.91,-2.24
-17.97,1.27,13.72,-0.48,-0.98,-1.99
-18.43,1.32,13.90,-0.22,-0.85,-1.52
-18.39,0.80,14.61,0.03,-0.71,-1.06
-18.37,0.51,15.25,0.30,-0.66,-0.70
-18.52,0.62,15.43,0.60,-0.65,-0.36
-18.57,0.67,14.91,0.90,-0.63,0.04
-18.29,0.50,13.86,1.14,-0.52,0.46
-17.70,0.28,12.89,1.33,-0.36,0.84
-17.06,-0.11,11.98,1.51,-0.25,1.18
-16.30,-0.72,10.87,1.68,-0.16,1.53
-15.50,-1.48,9.91,1.83,-0.06,1.88
-14.71,-2.25,8.89,1.97,-0.01,2.23
-13.91,-2.96,7.85,2.08,0.06,2.59
-13.05,-3.71,7.02,2.18,0.15,2.96
-12.15,-4.47,6.13,2.25,0.23,3.31
-11.29,-5.17,5.34,2.31,0.32,3.65
-10.47,-5.81,4.64,2.34,0.42,3.96
-9.74,-6.39,4.19,2.36,0.52,4.23
-9.11,-6.91,3.76,2.37,0.54,4.47
-8.42,-7.36,3.20,2.37,0.50,4.69
-7.57,-7.62,2.80,2.38,0.38,4.90
-6.48,-7.56,2.03,2.34,0.24,5.07
-5.21,-7.14,1.15,2.25,0.20,5.18
-3.88,-6.51,0.71,2.12,0.26,5.23
-2.54,-5.78,0.11,1.98,0.36,5.19
-1.55,-5.01,-0.38,1.82,0.61,5.10
-0.83,-4.30,-0.71,1.61,0.86,5.05
-0.09,-3.60,-0.81,1.36,1.07,5.00
0.66,-2.90,-0.45,1.11,1.21,4.95
1.45,-2.17,0.51,0.89,1.22,4.86
2.27,-1.44,1.73,0.72,1.03,4.74
3.21,-0.69,2.87,0.61,0.70,4.58
4.54,0.16,4.00,0.55,0.28,4.37
6.41,1.20,4.70,0.58,-0.14,4.13
8.64,2.42,5.00,0.64,-0.44,3.82
11.40,3.91,5.28,0.73,-0.65,3.48
14.57,5.67,5.60,0.80,-0.73,3.09
16.01,7.78,5.45,0.83,-0.67,2.77
19.51,9.23,5.96,0.80,-0.57,2.47
22.67,9.96,5.88,0.78,-0.46,1.79
23.05,10.40,4.99,0.64,-0.10,0.95
21.76,10.58,4.87,0.36,0.36,0.26
20.28,10.37,5.71,0.12,0.64,-0.32
18.79,9.88,6.20,0.00,0.58,-0.89
16.95,9.32,6.18,-0.01,0.26,-1.43
15.08,8.84,5.17,-0.00,-0.11,-1.92
13.27,8.44,4.49,-0.04,-0.38,-2.33
11.62,7.96,4.01,-0.09,-0.62,-2.68
10.09,7.36,3.56,-0.16,-0.82,-2.98
8.69,6.62,3.38,-0.22,-1.00,-3.26
7.60,5.79,2.99,-0.30,-1.15,-3.51
6.70,4.84,2.60,-0.37,-1.25,-3.74
5.93,3.91,1.98,-0.44,-1.29,-4.01
5.13,3.33,1.12,-0.57,-1.18,-4.25
4.53,2.90,0.30,-0.74,-0.90,-4.42
4.10,2.40,-0.51,-0.92,-0.47,-4.56
3.73,1.74,-1.25,-1.12,0.12,-4.71
3.24,0.97,-1.77,-1.31,0.82,-4.88
2.43,0.18,-1.76,-1.45,1.52,-5.06
1.33,-0.58,-1.67,-1.50,2.05,-5.21
0.12,-1.31,-1.70,-1.51,2.43,-5.33
-1.04,-1.96,-1.36,-1.46,2.59,-5.41
-1.95,-2.50,-1.41,-1.36,2.48,-5.48
-2.53,-2.99,-2.16,-1.30,2.44,-5.54
-2.90,-3.60,-2.77,-1.32,2.68,-5.59
-4.01,-4.22,-2.12,-1.33,2.85,-5.63
-6.42,-4.75,-0.81,-1.28,2.63,-5.63
-9.70,-5.10,1.00,-1.18,1.97,-5.55
-12.71,-5.09,2.43,-1.06,0.98,-5.35
-14.26,-4.70,2.49,-0.97,-0.12,-5.02
-14.11,-4.14,1.54,-0.97,-0.91,-4.60
-13.63,-3.62,1.15,-1.05,-1.19,-4.15
-14.03,-3.31,1.58,-1.13,-1.18,-3.73
-15.49,-3.14,2.40,-1.19,-1.04,-3.38
-17.27,-2.72,3.73,-1.20,-0.95,-3.03
-18.51,-2.10,5.29,-1.13,-1.02,-2.60
-19.27,-1.35,6.62,-0.98,-1.03,-2.13
-19.91,-0.65,7.93,-0.78,-0.91,-1.62
-20.67,0.11,8.97,-0.53,-0.77,-1.12
-21.46,1.15,9.49,-0.29,-0.65,-0.61
-21.90,2.32,9.77,-0.08,-0.58,-0.11
-21.89,3.38,10.00,0.14,-0.59,0.35
aX,aY,aZ,gX,gY,gZ
18.99,7.98,8.39,-0.14,0.68,0.45
18.23,8.27,8.08,-0.04,0.19,0.01
17.26,8.60,7.41,0.04,-0.30,-0.43
16.18,8.84,6.64,0.07,-0.71,-0.81
15.07,8.91,5.99,0.06,-1.03,-1.15
13.96,8.75,5.46,0.02,-1.26,-1.45
12.77,8.33,5.13,-0.02,-1.45,-1.73
11.54,7.82,4.91,-0.06,-1.64,-1.98
10.50,7.17,4.69,-0.08,-1.83,-2.23
9.54,6.56,4.39,-0.11,-1.99,-2.55
8.57,6.09,3.80,-0.15,-2.09,-2.85
7.76,5.63,2.94,-0.22,-2.06,-3.10
7.11,5.12,2.10,-0.35,-1.89,-3.32
6.51,4.52,1.47,-0.51,-1.61,-3.53
5.93,3.82,1.06,-0.67,-1.26,-3.74
5.31,3.01,0.79,-0.82,-0.84,-3.93
4.53,2.13,0.73,-0.96,-0.39,-4.07
3.65,1.24,0.89,-1.07,0.04,-4.17
2.59,0.40,1.23,-1.11,0.35,-4.22
1.42,-0.37,1.35,-1.09,0.52,-4.25
0.20,-1.06,1.31,-1.04,0.61,-4.22
-0.70,-1.68,1.20,-0.99,0.61,-4.15
-1.48,-2.09,0.75,-0.96,0.57,-4.10
-2.16,-2.24,0.50,-1.01,0.47,-4.01
-2.40,-2.21,0.21,-1.11,0.39,-3.92
-2.48,-2.09,-0.11,-1.23,0.49,-3.88
-2.83,-1.93,-0.28,-1.39,0.70,-3.86
-3.52,-1.78,-0.24,-1.59,0.98,-3.83
-4.47,-1.56,0.43,-1.78,1.28,-3.78
-5.65,-1.17,1.41,-1.95,1.50,-3.71
-7.22,-0.57,2.78,-2.06,1.64,-3.63
-9.29,0.17,4.30,-2.08,1.56,-3.50
-11.67,0.99,5.68,-2.02,1.33,-3.33
-14.09,2.00,7.04,-1.93,0.97,-3.11
-16.18,3.32,8.42,-1.82,0.51,-2.83
-17.57,4.80,9.49,-1.68,0.03,-2.48
-18.54,6.38,10.28,-1.52,-0.30,-2.04
-19.02,7.70,10.95,-1.33,-0.50,-1.51
-19.10,8.62,11.34,-1.11,-0.59,-0.96
-18.99,9.20,11.55,-0.87,-0.60,-0.42
-18.78,9.52,11.55,-0.60,-0.60,0.09
-18.46,9.59,11.34,-0.31,-0.57,0.58
-17.92,9.35,11.07,-0.00,-0.55,1.00
-17.21,8.87,10.54,0.30,-0.54,1.37
-16.18,8.20,9.71,0.57,-0.50,1.73
-14.96,7.41,8.73,0.80,-0.37,2.05
-13.82,6.48,7.83,0.99,-0.17,2.30
-12.91,5.47,7.15,1.14,0.08,2.49
-12.22,4.46,6.59,1.25,0.31,2.66
-11.63,3.52,6.05,1.32,0.50,2.80
-11.07,2.67,5.58,1.36,0.62,2.93
-10.64,1.69,5.16,1.40,0.68,3.05
-10.14,0.77,4.91,1.42,0.73,3.17
-10.33,0.81,4.26,1.35,0.67,3.29
-9.55,0.79,4.15,1.23,0.73,3.56
-8.90,-0.28,4.05,1.39,0.65,3.58
-8.59,-1.22,3.06,1.34,0.49,3.72
-7.80,-2.19,2.51,1.22,0.56,4.01
-6.62,-3.07,2.55,1.17,0.67,4.25
-5.36,-3.52,2.14,1.15,0.70,4.37
-4.35,-3.46,1.68,1.08,0.89,4.37
-3.90,-2.93,1.45,0.99,1.13,4.35
-3.66,-2.42,1.54,0.86,1.28,4.35
-3.39,-2.05,1.74,0.72,1.39,4.39
-2.62,-1.89,2.03,0.54,1.43,4.44
-1.44,-1.70,2.59,0.38,1.41,4.40
-0.31,-1.27,3.30,0.28,1.37,4.31
0.77,-0.65,4.35,0.23,1.31,4.23
1.99,0.05,5.44,0.23,1.16,4.16
3.60,0.75,6.37,0.26,0.93,4.05
6.16,1.44,6.82,0.32,0.68,3.86
9.67,2.31,6.67,0.42,0.68,3.54
12.86,3.62,6.46,0.50,0.86,3.15
15.23,5.17,6.44,0.54,1.13,2.75
16.69,6.70,6.85,0.56,1.36,2.32
17.43,7.98,7.45,0.59,1.45,1.88
17.70,8.86,8.03,0.64,1.33,1.44
17.70,9.40,8.30,0.70,1.03,1.01
17.49,9.74,8.01,0.77,0.63,0.59
17.00,10.07,7.11,0.81,0.24,0.20
16.10,10.50,5.95,0.78,-0.08,-0.15
14.88,10.99,4.90,0.70,-0.33,-0.45
13.58,11.36,4.03,0.58,-0.54,-0.69
12.29,11.47,3.49,0.44,-0.72,-0.90
11.09,11.21,3.01,0.27,-0.88,-1.09
9.98,10.65,2.80,0.10,-1.03,-1.28
8.97,9.90,2.85,-0.06,-1.24,-1.48
8.16,8.99,2.77,-0.22,-1.44,-1.70
7.50,8.04,2.55,-0.39,-1.62,-1.95
6.97,7.08,1.99,-0.57,-1.71,-2.22
6.53,6.09,1.15,-0.80,-1.63,-2.48
6.13,5.04,0.43,-1.05,-1.41,-2.74
5.86,3.93,-0.24,-1.29,-1.08,-3.00
5.63,2.75,-0.82,-1.52,-0.64,-3.28
5.29,1.53,-1.19,-1.71,-0.14,-3.56
4.77,0.38,-1.52,-1.86,0.37,-3.83
4.04,-0.69,-1.70,-1.98,0.89,-4.09
3.17,-1.64,-1.75,-2.08,1.37,-4.33
2.31,-2.51,-1.83,-2.17,1.82,-4.55
1.47,-3.33,-1.46,-2.22,2.18,-4.76
0.88,-4.58,-0.94,-2.17,2.32,-5.04
-0.51,-5.53,-0.26,-2.04,2.23,-5.41
-2.68,-5.92,0.75,-1.88,1.93,-5.62
-5.00,-6.04,1.97,-1.70,1.37,-5.56
-6.96,-6.23,2.88,-1.57,0.75,-5.36
-8.94,-6.24,4.22,-1.49,0.22,-5.20
-11.17,-5.72,5.33,-1.46,-0.23,-5.01
-12.88,-4.85,6.12,-1.45,-0.43,-4.71
-13.86,-4.05,6.68,-1.44,-0.38,-4.32
-14.55,-3.28,7.20,-1.42,-0.16,-3.92
-15.57,-2.25,7.78,-1.36,0.05,-3.56
-16.69,-0.72,8.84,-1.26,0.12,-3.22
-17.55,1.19,9.99,-1.07,-0.09,-2.90
-17.90,3.29,10.80,-0.85,-0.47,-2.59
-17.77,5.33,11.19,-0.63,-0.77,-2.27
-17.52,7.07,11.48,-0.44,-0.86,-1.94
-17.37,8.32,11.92,-0.25,-0.78,-1.59
-17.54,9.00,12.33,-0.02,-0.61,-1.24
-17.67,8.65,12.39,0.23,-0.43,-0.93
-18.27,8.04,12.05,0.46,-0.24,-0.73
-19.69,7.98,11.74,0.68,-0.07,-0.43
-20.70,7.82,11.47,0.92,-0.06,0.09
-20.42,6.90,10.85,1.16,-0.11,0.70
-19.28,5.59,10.15,1.39,-0.15,1.23
-18.02,4.27,9.24,1.60,-0.19,1.67
-16.72,3.07,8.10,1.78,-0.19,2.07
-15.25,1.94,6.90,1.92,-0.15,2.43
-13.64,0.92,5.74,2.01,-0.10,2.73
-12.10,-0.00,4.60,2.06,-0.04,2.96
-10.67,-0.85,3.56,2.05,0.05,3.11
-9.56,-1.61,2.82,2.01,0.14,3.22
-8.68,-2.29,2.17,1.94,0.18,3.32
-7.91,-2.83,1.54,1.84,0.21,3.40
-7.14,-3.17,1.07,1.72,0.21,3.48
-6.34,-3.32,0.61,1.58,0.19,3.54
-5.70,-3.30,0.24,1.43,0.18,3.60
-5.24,-3.23,-0.09,1.29,0.19,3.69
-4.74,-3.16,-0.23,1.12,0.23,3.80
-4.23,-3.06,-0.24,0.96,0.25,3.91
-3.66,-2.94,-0.33,0.81,0.27,4.01
-2.97,-2.76,-0.29,0.64,0.31,4.10
-2.22,-2.47,-0.17,0.47,0.33,4.18
-1.55,-2.11,0.33,0.30,0.36,4.25
-0.89,-1.74,1.04,0.15,0.31,4.29
-0.10,-1.38,1.87,0.04,0.19,4.32
0.92,-1.04,2.59,-0.05,0.03,4.33
2.02,-0.68,3.59,-0.08,-0.19,4.32
3.12,-0.34,4.71,-0.03,-0.51,4.28
4.59,0.00,5.61,0.10,-0.93,4.19
7.07,0.48,5.55,0.25,-1.23,4.02
10.15,1.36,4.80,0.34,-1.24,3.77
13.07,2.75,3.98,0.35,-0.91,3.49
15.52,4.46,3.97,0.27,-0.42,3.23
17.64,6.11,4.52,0.16,0.09,2.96
19.49,7.40,5.51,0.06,0.51,2.63
20.87,8.21,6.47,-0.02,0.77,2.21
21.31,8.66,7.54,-0.06,0.84,1.72
21.39,8.96,8.64,-0.03,0.60,1.20
21.00,9.26,8.75,0.07,0.14,0.61
20.16,9.55,7.92,0.15,-0.35,-0.02
18.98,9.62,6.74,0.16,-0.74,-0.63
17.58,9.45,5.73,0.13,-1.02,-1.21
16.15,9.08,4.78,0.03,-1.23,-1.73
14.90,8.50,4.06,-0.12,-1.34,-2.18
13.83,7.69,3.68,-0.29,-1.42,-2.59
12.76,6.74,3.44,-0.45,-1.49,-3.00
11.71,5.76,3.14,-0.60,-1.56,-3.39
10.67,4.79,2.77,-0.74,-1.61,-3.77
9.61,3.86,2.25,-0.90,-1.60,-4.13
8.57,2.98,1.58,-1.07,-1.49,-4.44
7.68,2.13,0.82,-1.26,-1.25,-4.71
7.00,1.31,-0.01,-1.45,-0.86,-4.92
6.40,0.43,-0.88,-1.65,-0.26,-5.08
5.81,-0.48,-1.86,-1.86,0.57,-5.21
5.13,-1.40,-2.90,-2.08,1.65,-5.33
4.22,-2.27,-3.67,-2.25,2.91,-5.44
2.57,-3.22,-4.14,-2.32,4.15,-5.51
0.29,-4.25,-4.29,-2.32,5.33,-5.49
-2.24,-5.32,-3.55,-2.19,6.20,-5.40
-5.11,-6.40,-2.18,-1.89,6.55,-5.31
-8.76,-7.13,-0.14,-1.49,6.14,-5.26
-13.01,-7.24,2.60,-0.96,4.89,-5.12
-16.41,-5.89,4.85,-0.21,2.70,-5.01
-17.28,-3.68,4.25,0.44,0.34,-4.73
-16.14,-1.36,2.43,0.74,-1.38,-4.35
-14.09,0.84,0.66,0.66,-2.14,-3.96
-11.89,2.37,-0.35,0.32,-2.00,-3.65
-10.49,2.94,-0.52,-0.14,-1.20,-3.51
-11.07,2.95,0.15,-0.59,-0.12,-3.50
-13.97,2.81,1.70,-0.90,0.80,-3.44
-18.39,2.71,4.08,-0.99,1.22,-3.16
-22.18,2.71,6.79,-0.81,1.01,-2.64
-24.23,3.07,8.69,-0.40,0.31,-1.99
-24.62,3.73,8.79,0.08,-0.47,-1.30
-23.98,4.35,7.68,0.48,-0.95,-0.62
-23.08,4.71,6.51,0.75,-1.06,0.00
-22.33,4.80,5.70,0.90,-0.96,0.58
-21.85,4.62,5.31,0.99,-0.80,1.12
-21.34,4.19,5.10,1.07,-0.73,1.65
-20.38,3.63,4.99,1.15,-0.80,2.14
-19.02,2.99,4.67,1.28,-0.99,2.59
-17.57,2.26,3.85,1.41,-1.20,2.99
-16.05,1.50,2.81,1.47,-1.32,3.37
-14.55,0.78,2.02,1.48,-1.34,3.70
-13.05,0.07,1.45,1.45,-1.29,3.98
-11.68,-0.62,0.94,1.39,-1.19,4.22
-10.51,-1.29,0.65,1.28,-1.07,4.45
-9.39,-1.97,0.42,1.17,-0.99,4.68
-8.30,-2.57,0.30,1.08,-0.97,4.85
-7.49,-3.18,0.53,1.04,-1.07,5.01
-6.71,-3.75,0.40,1.08,-1.32,5.18
-5.79,-4.07,-0.22,1.11,-1.51,5.30
-4.79,-4.14,-0.89,1.10,-1.52,5.41
-3.57,-4.07,-1.47,1.03,-1.37,5.51
-2.25,-3.95,-1.67,0.89,-1.08,5.57
-1.03,-3.79,-1.70,0.72,-0.70,5.58
-0.21,-3.63,-1.07,0.52,-0.29,5.54
0.24,-3.50,-0.12,0.38,-0.06,5.52
0.84,-3.35,0.88,0.28,0.02,5.52
1.72,-3.18,2.31,0.26,-0.09,5.50
3.00,-2.99,3.46,0.32,-0.35,5.43
4.71,-2.70,4.37,0.44,-0.63,5.33
7.18,-2.34,4.99,0.62,-0.89,5.18
10.67,-1.78,5.41,0.82,-1.00,4.93
14.57,-0.75,5.08,1.02,-0.86,4.53
16.42,0.65,4.34,1.07,-0.27,4.16
19.54,1.88,4.48,1.02,0.23,3.73
22.31,3.20,4.14,0.93,0.72,3.05
23.54,4.76,4.10,0.77,1.30,2.25
23.79,6.01,5.25,0.60,1.77,1.48
23.33,6.67,7.00,0.54,1.88,0.74
22.07,6.75,7.85,0.59,1.60,0.03
20.03,6.68,8.00,0.64,1.07,-0.61
18.42,6.76,7.39,0.68,0.43,-1.20
17.20,6.99,6.54,0.68,-0.16,-1.75
15.81,6.96,5.50,0.63,-0.59,-2.22
14.24,6.56,4.62,0.53,-0.89,-2.60
12.71,5.94,3.86,0.38,-1.12,-2.91
11.28,5.27,3.32,0.22,-1.31,-3.16
10.00,4.69,2.74,0.07,-1.44,-3.37
8.81,4.21,2.11,-0.10,-1.49,-3.57
7.69,3.85,1.52,-0.28,-1.44,-3.75
6.65,3.47,1.19,-0.45,-1.35,-3.92
5.81,3.07,0.84,-0.63,-1.21,-4.12
5.02,2.77,0.41,-0.81,-1.00,-4.31
4.41,2.45,-0.15,-1.01,-0.66,-4.43
3.90,2.06,-0.72,-1.22,-0.21,-4.52
3.23,1.61,-1.17,-1.44,0.34,-4.60
2.23,1.05,-0.97,-1.63,0.90,-4.69
0.78,0.34,-0.56,-1.75,1.35,-4.77
-0.98,-0.45,-0.38,-1.84,1.68,-4.79
-2.68,-1.20,-0.04,-1.90,1.92,-4.73
-3.95,-1.76,0.17,-1.95,2.10,-4.64
-4.79,-2.15,0.59,-2.00,2.32,-4.53
-5.49,-2.42,1.13,-1.99,2.47,-4.42
-6.27,-2.58,2.00,-1.93,2.41,-4.29
-7.12,-2.56,2.71,-1.81,2.03,-4.15
-8.18,-2.39,3.03,-1.68,1.55,-4.02
-9.65,-2.09,3.60,-1.59,1.08,-3.90
-11.36,-1.67,4.04,-1.53,0.66,-3.77
-12.77,-0.98,4.79,-1.51,0.29,-3.61
-13.49,0.16,5.52,-1.49,-0.07,-3.41
-13.73,1.55,6.17,-1.48,-0.30,-3.15
-14.20,2.83,7.15,-1.43,-0.36,-2.84
-15.35,3.65,7.95,-1.32,-0.32,-2.48
-16.93,3.99,9.03,-1.17,-0.28,-2.05
-18.27,4.10,10.16,-0.97,-0.35,-1.56
-18.95,4.18,10.82,-0.72,-0.45,-1.07
-18.96,4.19,11.05,-0.45,-0.49,-0.69
-19.37,4.46,10.88,-0.16,-0.49,-0.34
-19.63,4.65,10.33,0.12,-0.42,0.14
-19.35,4.63,9.81,0.38,-0.31,0.66
-18.65,4.59,9.16,0.61,-0.25,1.14
-17.62,4.55,8.32,0.82,-0.21,1.57
-16.41,4.42,7.24,1.01,-0.15,1.95
-15.47,3.70,6.48,1.19,-0.05,2.28
-14.38,3.00,5.35,1.33,-0.02,2.58
-13.32,2.68,4.19,1.36,0.18,2.72
-12.73,2.08,3.80,1.41,0.37,2.85
-11.89,1.01,2.98,1.42,0.51,3.09
-10.89,-0.06,2.37,1.35,0.67,3.29
-10.29,-0.61,2.18,1.27,0.75,3.42
-9.81,-0.98,1.74,1.19,0.75,3.59
-9.11,-1.43,1.46,1.10,0.78,3.75
-8.40,-1.78,1.28,1.00,0.77,3.84
-7.76,-1.98,1.11,0.90,0.77,3.90
-7.13,-2.15,1.03,0.79,0.78,3.95
-6.52,-2.34,0.71,0.68,0.84,4.00
-5.98,-2.49,0.46,0.54,0.94,4.03
-5.45,-2.54,0.34,0.38,1.04,4.02
-4.92,-2.47,0.29,0.21,1.14,4.00
-4.30,-2.25,0.64,0.02,1.22,3.96
-3.64,-1.90,1.49,-0.17,1.19,3.92
-3.04,-1.45,2.36,-0.32,1.06,3.86
-2.30,-0.98,3.26,-0.44,0.88,3.82
-1.27,-0.47,4.30,-0.52,0.67,3.76
-0.11,0.20,5.55,-0.53,0.37,3.68
1.32,1.01,6.69,-0.47,0.01,3.56
3.14,1.97,7.75,-0.37,-0.35,3.41
5.69,3.12,8.26,-0.25,-0.61,3.17
aX,aY,aZ,gX,gY,gZ
-17.22,3.70,9.73,-0.69,-1.20,-2.13
-16.71,5.18,10.45,-0.47,-1.34,-1.77
-16.13,6.32,10.82,-0.24,-1.30,-1.44
-15.97,7.18,11.38,-0.04,-1.06,-1.18
-16.45,7.78,11.97,0.19,-0.72,-0.92
-17.14,8.06,12.56,0.43,-0.39,-0.59
-17.45,8.13,13.17,0.72,-0.15,-0.22
-17.34,8.09,13.41,1.05,-0.02,0.15
-17.12,7.90,13.10,1.39,0.05,0.53
-16.82,7.67,12.18,1.71,0.07,0.90
-16.38,7.46,10.84,1.99,0.10,1.24
-15.75,7.14,9.30,2.21,0.19,1.57
-14.98,6.56,7.90,2.36,0.32,1.87
-13.87,5.60,6.85,2.47,0.42,2.11
-13.41,4.73,5.63,2.55,0.46,2.28
-13.37,3.98,4.15,2.53,0.53,2.50
-12.94,3.23,3.32,2.43,0.61,2.75
-12.06,2.56,2.96,2.35,0.56,2.95
-11.05,2.02,2.23,2.29,0.40,3.12
-9.91,1.60,0.96,2.17,0.34,3.26
-8.96,1.25,0.04,1.97,0.42,3.38
-8.10,0.97,-0.66,1.70,0.57,3.50
-7.44,0.77,-0.91,1.39,0.78,3.60
-6.98,0.43,-0.72,1.08,0.96,3.72
-6.56,-0.17,-0.49,0.79,1.09,3.83
-6.13,-0.90,-0.41,0.50,1.14,3.91
-5.54,-1.50,-0.44,0.21,1.14,3.99
-4.74,-1.87,-0.40,-0.07,1.09,4.06
-3.83,-2.05,-0.47,-0.31,1.00,4.15
-3.03,-2.14,-0.81,-0.55,0.96,4.24
-2.41,-2.19,-1.07,-0.82,1.00,4.33
-1.96,-2.29,-0.86,-1.11,1.08,4.41
-1.63,-2.54,-0.16,-1.36,1.07,4.49
-1.25,-2.84,0.91,-1.56,0.89,4.55
-0.56,-3.04,2.09,-1.69,0.55,4.57
0.46,-3.07,3.47,-1.71,0.08,4.57
1.86,-3.04,4.58,-1.63,-0.44,4.52
3.71,-3.00,5.30,-1.45,-0.88,4.41
6.23,-2.78,5.69,-1.22,-1.17,4.25
9.53,-2.12,5.99,-0.98,-1.31,4.01
13.07,-0.82,6.41,-0.74,-1.29,3.70
14.22,0.85,6.51,-0.55,-1.06,3.46
17.48,2.07,8.55,-0.34,-1.06,3.19
20.60,3.22,9.02,0.00,-1.32,2.56
22.48,4.55,8.29,0.26,-1.40,1.76
23.66,5.66,7.73,0.39,-1.36,0.93
24.15,6.56,6.81,0.40,-1.24,0.10
23.82,7.26,5.74,0.25,-0.97,-0.67
22.84,7.61,4.94,-0.06,-0.53,-1.31
21.32,7.53,4.65,-0.46,-0.02,-1.82
19.44,7.09,4.95,-0.88,0.48,-2.19
17.48,6.26,5.90,-1.17,0.79,-2.52
15.32,5.33,6.46,-1.31,0.83,-2.84
13.21,4.51,6.35,-1.34,0.72,-3.09
11.33,3.83,6.03,-1.35,0.61,-3.27
9.68,3.23,5.91,-1.34,0.53,-3.40
8.18,2.63,5.77,-1.30,0.44,-3.49
6.68,1.98,5.61,-1.23,0.34,-3.57
5.37,1.33,5.21,-1.15,0.22,-3.65
4.29,0.75,4.65,-1.09,0.14,-3.78
3.41,0.32,4.10,-1.07,0.10,-3.94
2.61,0.00,3.62,-1.05,0.10,-4.12
1.84,-0.25,3.17,-1.05,0.10,-4.28
1.18,-0.53,2.60,-1.05,0.14,-4.41
0.67,-0.91,2.11,-1.07,0.22,-4.50
0.44,-1.36,1.75,-1.08,0.33,-4.57
-0.06,-2.00,0.77,-1.11,0.56,-4.62
-0.73,-2.72,-0.18,-1.19,1.02,-4.63
-1.64,-3.41,-0.36,-1.28,1.54,-4.60
-3.06,-4.03,0.23,-1.30,1.94,-4.53
-4.91,-4.51,1.29,-1.24,2.06,-4.43
-6.65,-4.79,1.83,-1.11,1.92,-4.32
-8.05,-4.78,2.07,-0.99,1.71,-4.23
-9.27,-4.36,2.49,-0.91,1.45,-4.09
-10.18,-3.75,2.73,-0.86,1.21,-3.92
-11.18,-3.03,3.31,-0.83,1.00,-3.70
-12.18,-2.42,4.15,-0.80,0.76,-3.45
-13.18,-1.70,4.95,-0.74,0.51,-3.29
-14.26,-0.34,5.70,-0.69,0.29,-3.08
-14.70,1.08,6.51,-0.63,0.14,-2.77
-14.70,2.26,7.23,-0.56,0.07,-2.50
-14.82,3.23,7.86,-0.47,0.09,-2.29
-15.23,4.05,8.58,-0.37,0.21,-2.09
-15.95,4.75,9.45,-0.23,0.35,-1.88
-16.84,5.34,10.13,-0.05,0.48,-1.63
-17.74,5.53,10.66,0.18,0.57,-1.34
-18.61,5.14,10.84,0.44,0.64,-1.00
-19.45,4.30,10.81,0.70,0.74,-0.60
-20.19,3.28,10.66,0.95,0.86,-0.18
-20.20,2.32,10.55,1.21,0.90,0.15
-20.89,1.61,9.82,1.45,0.97,0.59
-21.18,0.75,9.32,1.68,0.97,1.17
-20.71,-0.02,8.60,1.90,0.72,1.74
-19.50,-0.49,7.41,2.12,0.39,2.26
-17.57,-0.71,5.95,2.28,0.17,2.74
-15.40,-0.90,4.73,2.38,0.12,3.14
-13.42,-0.93,3.56,2.42,0.19,3.44
-11.92,-0.97,2.49,2.40,0.37,3.68
-10.97,-1.21,1.90,2.30,0.63,3.88
-10.42,-1.77,1.41,2.15,0.89,4.11
-9.98,-2.68,1.13,1.96,1.12,4.36
-9.32,-3.75,1.07,1.77,1.18,4.63
-8.35,-4.41,0.86,1.58,1.16,4.80
-7.51,-4.55,0.79,1.41,1.11,4.91
-6.70,-4.52,0.69,1.24,1.08,4.99
-5.88,-4.45,0.56,1.07,1.07,5.04
-4.97,-4.32,0.26,0.88,1.10,5.06
-3.99,-4.06,0.04,0.65,1.20,5.02
-3.10,-3.73,0.30,0.42,1.32,4.97
-2.14,-3.41,0.79,0.21,1.36,4.90
-1.14,-3.00,0.99,0.01,1.37,4.76
-0.27,-2.43,0.89,-0.21,1.45,4.59
0.40,-1.78,0.76,-0.44,1.64,4.39
0.91,-1.03,1.03,-0.68,1.86,4.17
1.37,-0.12,1.87,-0.91,2.02,3.94
1.87,0.96,3.57,-1.07,2.05,3.73
3.02,2.06,5.62,-1.13,1.87,3.59
5.54,2.97,7.19,-1.08,1.63,3.29
7.86,4.36,8.45,-0.94,1.52,2.82
9.77,6.43,9.25,-0.77,1.44,2.39
11.99,8.87,10.13,-0.58,1.37,2.10
14.31,10.90,10.91,-0.36,1.33,1.87
16.06,12.13,11.74,-0.14,1.28,1.61
16.94,12.72,12.43,0.06,1.17,1.29
17.14,12.96,13.06,0.26,0.95,0.93
17.15,12.88,13.27,0.46,0.64,0.52
16.76,12.54,12.85,0.64,0.31,0.04
15.69,12.12,11.88,0.79,0.01,-0.41
14.18,11.66,10.68,0.86,-0.26,-0.78
12.58,11.09,9.42,0.85,-0.48,-1.06
11.12,10.31,8.24,0.78,-0.64,-1.28
9.87,9.42,7.19,0.65,-0.77,-1.49
8.73,8.47,6.41,0.49,-0.84,-1.70
7.60,7.49,5.79,0.32,-0.87,-1.90
6.35,6.55,5.32,0.14,-0.83,-2.10
5.06,5.72,5.03,-0.03,-0.79,-2.29
4.01,4.86,4.48,-0.20,-0.71,-2.50
3.09,4.14,3.68,-0.36,-0.59,-2.76
2.55,3.55,2.83,-0.56,-0.38,-3.02
2.45,2.77,1.88,-0.78,0.01,-3.33
2.30,1.92,1.12,-1.02,0.59,-3.68
1.99,1.00,0.49,-1.23,1.42,-3.99
1.41,-0.05,0.07,-1.40,2.40,-4.26
0.22,-1.23,-0.43,-1.51,3.51,-4.47
-1.78,-2.53,-0.70,-1.51,4.56,-4.61
-4.20,-3.93,-0.85,-1.38,5.26,-4.69
-6.13,-5.37,-0.93,-1.09,5.47,-4.79
-7.84,-5.63,-1.18,-0.76,5.16,-4.94
-8.93,-5.09,-1.39,-0.34,4.46,-4.90
-9.15,-4.56,-1.37,0.15,3.61,-4.71
-8.77,-4.36,-0.47,0.67,2.65,-4.53
-8.47,-4.26,0.53,1.21,1.44,-4.41
-8.65,-4.12,0.07,1.66,0.16,-4.33
-9.18,-3.76,-1.39,1.84,-0.77,-4.28
-9.88,-2.95,-3.05,1.77,-1.17,-4.24
-10.53,-1.85,-4.26,1.54,-1.18,-4.16
-11.26,-1.12,-4.61,1.29,-1.15,-4.04
-12.22,-0.72,-4.33,1.04,-1.16,-3.93
-13.96,-0.22,-2.96,0.82,-1.22,-3.77
-16.19,0.31,-1.48,0.69,-1.40,-3.47
-18.14,0.76,-0.53,0.61,-1.57,-3.05
-19.53,1.27,0.25,0.54,-1.64,-2.61
-20.50,1.98,0.97,0.49,-1.60,-2.18
-21.47,2.72,1.42,0.45,-1.46,-1.73
-22.51,3.56,1.96,0.39,-1.19,-1.25
-23.27,4.37,2.61,0.36,-0.96,-0.73
-23.42,5.02,3.36,0.38,-0.75,-0.21
-23.04,5.20,4.05,0.44,-0.62,0.31
-22.48,4.75,4.30,0.54,-0.55,0.82
-22.05,3.94,4.26,0.65,-0.55,1.32
-21.49,2.85,3.95,0.77,-0.64,1.82
-20.20,1.84,3.05,0.79,-0.64,2.22
-19.07,1.38,2.81,0.78,-0.56,2.50
-18.40,1.05,2.70,0.79,-0.54,2.81
-17.60,0.53,2.76,0.83,-0.57,3.19
-16.68,0.02,2.96,0.91,-0.72,3.52
-16.05,-0.31,2.73,1.05,-0.96,3.79
-15.49,-0.76,2.45,1.18,-1.16,4.11
-14.47,-1.52,2.26,1.33,-1.40,4.46
-13.04,-2.34,1.62,1.44,-1.61,4.75
-11.36,-3.02,1.06,1.49,-1.65,5.01
-9.57,-3.52,0.58,1.47,-1.57,5.23
-7.84,-3.75,0.14,1.41,-1.38,5.39
-6.33,-3.75,-0.08,1.32,-1.14,5.48
-5.16,-3.77,-0.38,1.21,-0.88,5.55
-4.12,-3.97,-0.48,1.10,-0.63,5.61
-3.07,-4.26,-0.42,0.99,-0.46,5.65
-1.93,-4.50,-0.52,0.89,-0.36,5.63
-0.75,-4.56,-0.85,0.77,-0.24,5.57
0.45,-4.40,-1.54,0.59,0.03,5.46
1.56,-3.98,-2.31,0.35,0.46,5.31
2.36,-3.39,-2.16,0.07,0.99,5.12
2.82,-2.66,-1.04,-0.15,1.28,4.88
3.14,-1.80,-0.25,-0.31,1.43,4.61
3.35,-0.87,0.68,-0.45,1.63,4.35
3.38,-0.05,2.06,-0.59,1.78,4.12
3.53,0.59,4.16,-0.61,1.68,3.87
4.25,1.16,6.20,-0.53,1.26,3.57
5.92,1.90,7.86,-0.39,0.71,3.20
8.60,3.00,8.21,-0.27,0.33,2.80
11.52,4.39,8.22,-0.23,0.35,2.41
14.18,5.76,8.28,-0.27,0.62,2.06
16.40,6.80,8.97,-0.36,1.02,1.69
18.06,7.48,10.41,-0.44,1.34,1.28
18.90,7.81,12.03,-0.46,1.48,0.87
19.07,7.90,13.59,-0.39,1.34,0.48
19.00,7.97,14.48,-0.24,0.96,0.08
18.78,8.13,14.64,-0.06,0.47,-0.32
18.50,8.49,14.25,0.13,-0.07,-0.74
18.09,8.88,13.73,0.30,-0.55,-1.18
17.41,9.00,13.18,0.44,-0.96,-1.63
16.47,8.63,12.63,0.56,-1.32,-2.08
15.61,7.90,11.84,0.65,-1.63,-2.52
14.76,7.00,10.79,0.69,-1.79,-2.96
13.92,5.94,9.69,0.67,-1.80,-3.41
12.62,4.74,8.71,0.62,-1.64,-3.89
10.80,3.50,7.90,0.56,-1.40,-4.30
8.88,2.33,6.80,0.50,-1.17,-4.60
7.02,1.42,5.37,0.41,-0.86,-4.84
5.35,0.85,4.07,0.27,-0.46,-5.01
3.89,0.46,3.26,0.12,-0.04,-5.13
2.58,0.02,2.52,-0.01,0.37,-5.20
1.42,-0.58,1.93,-0.14,0.77,-5.22
0.51,-1.29,1.83,-0.23,1.12,-5.21
-0.46,-1.95,2.42,-0.22,1.23,-5.17
-1.62,-2.55,2.94,-0.08,0.92,-5.12
-2.86,-3.03,2.78,0.09,0.36,-5.06
-3.73,-3.30,1.80,0.19,-0.25,-5.00
-4.07,-3.30,0.50,0.18,-0.70,-4.98
-4.12,-3.01,-0.87,0.08,-0.94,-4.96
-4.07,-2.60,-1.81,-0.10,-0.95,-4.93
-4.09,-2.21,-1.95,-0.35,-0.81,-4.86
-4.32,-2.03,-1.40,-0.60,-0.63,-4.75
-4.89,-2.19,-0.70,-0.81,-0.47,-4.61
-6.01,-2.61,0.06,-0.97,-0.27,-4.46
-7.52,-2.93,0.60,-1.09,-0.04,-4.29
-8.81,-2.82,0.69,-1.19,0.24,-4.13
-9.91,-2.27,2.10,-1.21,0.43,-4.00
-11.12,-1.85,4.37,-1.01,0.12,-3.96
-12.81,-0.98,4.91,-0.73,-0.41,-3.99
-14.33,0.33,4.86,-0.54,-0.68,-3.83
-15.09,1.57,5.20,-0.41,-0.71,-3.54
-15.56,2.72,5.73,-0.32,-0.55,-3.27
-16.16,3.58,6.90,-0.20,-0.25,-3.00
-16.89,3.89,7.97,0.01,-0.02,-2.79
-18.31,3.91,8.10,0.27,0.22,-2.56
-19.91,3.75,7.53,0.50,0.43,-2.24
-21.23,3.52,7.00,0.69,0.59,-1.80
-21.95,3.05,6.73,0.84,0.72,-1.27
-22.04,2.20,6.48,0.96,0.80,-0.73
-21.82,1.22,5.77,1.04,0.87,-0.22
-21.59,0.46,5.10,1.04,0.96,0.29
-21.23,0.03,4.61,1.00,0.97,0.78
-20.72,-0.17,4.20,0.96,0.90,1.24
-20.04,-0.35,3.74,0.92,0.74,1.65
-19.23,-0.53,3.16,0.89,0.54,2.02
-18.32,-0.65,2.61,0.87,0.36,2.37
-17.25,-0.65,2.00,0.82,0.22,2.70
-16.04,-0.57,1.39,0.73,0.17,3.00
-14.86,-0.61,1.20,0.62,0.17,3.24
-13.91,-0.91,1.18,0.54,0.13,3.41
-13.25,-1.50,1.06,0.49,0.07,3.57
-12.64,-2.44,1.09,0.45,-0.01,3.75
-11.83,-3.53,1.13,0.43,-0.15,3.96
-10.79,-4.29,1.07,0.43,-0.31,4.15
-9.52,-4.81,1.02,0.47,-0.49,4.30
-8.05,-5.54,2.09,0.66,-0.71,4.31
-6.84,-7.08,5.52,1.38,-1.12,4.08
-6.34,-7.48,7.74,2.71,-1.93,3.59
-6.32,-6.01,5.18,4.12,-2.34,3.24
-6.23,-4.35,0.11,4.92,-2.03,3.24
-6.00,-3.06,-4.99,4.67,-1.60,3.46
-5.45,-2.04,-8.92,3.44,-1.13,3.84
-4.63,-1.23,-9.84,1.67,-0.53,4.24
-3.50,-0.84,-8.95,-0.13,0.07,4.54
-1.97,-1.10,-7.94,-1.74,0.83,4.66
-0.52,-2.02,-6.80,-3.17,1.84,4.57
0.59,-3.37,-4.59,-4.42,2.85,4.19
-1.56,-3.99,9.33,-3.64,3.68,3.87
-2.77,-4.42,8.39,-2.55,3.38,3.63
-4.22,-4.39,6.49,-1.78,2.74,3.45
-4.32,-3.71,6.44,-1.24,2.18,3.36
-2.88,-2.44,6.84,-0.84,1.26,3.26
-0.15,-0.91,6.66,-0.47,0.72,3.12
2.60,0.67,7.06,-0.15,0.65,2.92
4.28,2.25,7.65,0.09,0.68,2.71
5.26,3.83,8.04,0.29,0.72,2.51
5.86,5.59,8.40,0.43,0.72,2.33
6.54,7.47,8.88,0.56,0.62,2.15
7.41,9.28,9.11,0.66,0.46,1.97
8.21,10.71,9.24,0.74,0.31,1.82
9.02,11.64,9.29,0.81,0.15,1.70
10.05,12.22,8.99,0.86,0.01,1.57
11.21,12.73,8.37,0.87,-0.07,1.40
12.21,13.19,7.68,0.83,-0.02,1.19
12.79,13.39,7.22,0.75,0.12,0.95
12.94,13.25,7.05,0.65,0.29,0.69
12.94,12.74,6.99,0.56,0.42,0.43
12.63,11.90,6.50,0.48,0.55,0.14
11.82,10.90,5.97,0.39,0.65,-0.14
aX,aY,aZ,gX,gY,gZ
-25.00,1.72,1.47,0.68,0.93,-2.67
-27.03,1.06,1.64,0.75,0.71,-2.27
-28.32,0.52,0.78,0.81,0.39,-1.76
-29.13,0.45,-0.25,0.81,0.16,-1.08
-29.05,0.36,-0.96,0.75,-0.01,-0.23
-27.81,-0.06,-1.28,0.68,-0.15,0.62
-25.88,-0.53,-1.44,0.63,-0.34,1.34
-23.77,-0.83,-1.76,0.58,-0.56,1.93
-21.65,-1.02,-2.10,0.51,-0.73,2.44
-19.53,-1.21,-2.41,0.42,-0.86,2.86
-17.50,-1.42,-2.61,0.31,-0.95,3.21
-15.59,-1.62,-2.69,0.20,-1.01,3.50
-13.86,-1.80,-2.65,0.09,-1.06,3.73
-12.44,-1.96,-2.62,-0.00,-1.10,3.93
-11.22,-2.18,-2.75,-0.09,-1.12,4.13
-10.10,-2.51,-2.64,-0.17,-1.09,4.32
-8.96,-2.92,-2.44,-0.24,-1.09,4.51
-7.78,-3.31,-2.27,-0.30,-1.08,4.67
-6.68,-3.73,-2.06,-0.35,-1.01,4.82
-5.79,-4.19,-1.91,-0.41,-0.88,4.95
-5.09,-4.73,-1.50,-0.47,-0.77,5.09
-4.25,-5.13,-1.18,-0.50,-0.72,5.19
-3.51,-5.24,-0.91,-0.52,-0.71,5.23
-2.87,-5.10,-0.88,-0.53,-0.69,5.25
-2.26,-4.78,-0.69,-0.57,-0.60,5.28
-1.51,-4.39,-0.05,-0.59,-0.52,5.30
-0.54,-3.97,0.79,-0.56,-0.51,5.25
0.26,-3.48,2.04,-0.45,-0.57,5.14
0.96,-3.00,3.34,-0.25,-0.74,4.97
1.92,-2.53,4.11,-0.00,-0.98,4.74
3.10,-1.92,4.61,0.27,-1.27,4.48
4.87,-1.24,4.63,0.54,-1.54,4.20
7.51,-0.54,4.53,0.81,-1.65,3.85
10.67,0.44,4.15,1.03,-1.53,3.40
13.68,1.96,3.87,1.13,-1.10,2.90
15.73,4.02,3.89,1.08,-0.45,2.46
16.72,6.11,4.44,0.88,0.33,2.11
16.98,7.80,6.11,0.63,0.96,1.80
17.20,8.68,8.16,0.47,1.25,1.47
17.43,8.80,9.45,0.40,1.25,1.09
17.30,8.65,9.81,0.38,1.07,0.65
16.90,8.88,9.65,0.39,0.79,0.22
16.52,9.65,8.92,0.40,0.50,-0.21
16.07,10.66,7.67,0.35,0.35,-0.63
15.26,11.52,6.63,0.25,0.35,-1.04
13.99,11.90,5.91,0.12,0.44,-1.41
12.38,11.72,5.77,0.01,0.51,-1.77
10.71,11.13,5.80,-0.05,0.48,-2.11
9.11,10.27,6.06,-0.04,0.33,-2.45
7.62,9.29,5.88,0.02,0.05,-2.80
6.38,8.24,5.17,0.07,-0.20,-3.12
5.48,7.11,4.07,0.06,-0.36,-3.43
4.82,5.92,2.82,-0.01,-0.37,-3.73
4.31,4.64,1.60,-0.13,-0.25,-4.01
3.86,3.27,0.57,-0.29,-0.01,-4.30
3.39,1.84,-0.29,-0.47,0.29,-4.57
2.80,0.38,-0.85,-0.63,0.61,-4.83
2.04,-1.07,-1.28,-0.77,0.93,-5.06
1.07,-2.51,-1.49,-0.88,1.22,-5.25
-0.00,-3.95,-1.58,-0.91,1.47,-5.38
-1.21,-5.43,-1.09,-0.85,1.65,-5.49
-2.66,-6.96,-0.35,-0.72,1.60,-5.59
-4.12,-8.26,0.06,-0.58,1.36,-5.70
-5.13,-9.07,0.28,-0.46,1.02,-5.81
-5.38,-9.33,-0.23,-0.38,0.71,-5.91
-5.43,-9.43,-0.61,-0.27,0.52,-5.93
-5.90,-9.89,-0.81,-0.15,0.37,-5.86
-6.79,-10.70,-0.98,-0.05,0.28,-5.71
-7.97,-11.45,-0.91,-0.01,0.23,-5.53
-9.31,-11.80,-0.71,-0.01,0.22,-5.35
-11.05,-11.68,-0.09,-0.01,0.22,-5.13
-13.04,-11.43,0.55,0.01,0.18,-4.80
-14.68,-11.09,0.65,0.05,0.17,-4.40
-16.00,-10.31,1.04,0.09,0.16,-4.04
-17.53,-8.21,1.68,0.15,0.17,-3.76
-19.33,-5.45,2.35,0.28,0.17,-3.39
-20.82,-3.07,2.33,0.46,0.20,-2.94
-21.61,-1.71,1.94,0.61,0.31,-2.46
-21.81,-1.33,1.63,0.69,0.54,-2.01
-22.09,-1.37,1.55,0.67,0.85,-1.59
-22.91,-1.35,1.81,0.63,1.11,-1.20
-23.97,-1.34,2.18,0.57,1.27,-0.88
-25.27,-1.87,2.86,0.61,1.09,-0.41
-25.48,-2.51,2.27,0.66,0.80,0.08
-25.37,-2.99,1.76,0.58,0.73,0.54
-25.03,-3.42,2.07,0.53,0.63,1.04
-24.50,-3.51,1.78,0.54,0.42,1.45
-23.96,-3.21,0.95,0.54,0.23,1.85
-22.98,-3.00,0.11,0.50,0.13,2.23
-21.72,-3.14,-0.37,0.43,0.08,2.55
-20.34,-3.41,-0.62,0.35,0.01,2.79
-19.00,-3.53,-0.78,0.29,-0.09,2.96
-17.77,-3.54,-1.16,0.25,-0.23,3.09
-16.53,-3.62,-1.48,0.21,-0.34,3.21
-15.36,-3.91,-1.67,0.18,-0.45,3.32
-14.23,-4.31,-1.77,0.15,-0.53,3.45
-13.03,-4.63,-1.82,0.12,-0.59,3.59
-11.72,-4.77,-1.95,0.07,-0.58,3.74
-10.58,-4.70,-1.84,0.02,-0.56,3.87
-9.44,-4.44,-1.76,-0.03,-0.58,3.98
-8.33,-3.98,-1.53,-0.08,-0.61,4.08
-7.40,-3.46,-1.35,-0.12,-0.66,4.16
-6.76,-3.11,-1.38,-0.16,-0.68,4.23
-6.21,-3.07,-1.43,-0.23,-0.64,4.31
-5.60,-3.15,-1.11,-0.30,-0.60,4.38
-4.98,-3.16,-0.85,-0.37,-0.64,4.42
-4.45,-3.08,-0.95,-0.43,-0.67,4.45
-3.97,-3.03,-0.97,-0.52,-0.64,4.50
-3.48,-3.14,-0.90,-0.63,-0.59,4.57
-2.85,-3.34,-0.66,-0.75,-0.54,4.63
-2.09,-3.47,0.04,-0.86,-0.54,4.66
-1.23,-3.52,0.74,-0.92,-0.64,4.65
-0.45,-3.40,1.11,-0.95,-0.78,4.59
0.15,-3.22,1.75,-0.94,-0.92,4.52
0.88,-3.05,2.39,-0.88,-1.11,4.41
1.73,-2.83,3.41,-0.77,-1.33,4.28
2.87,-2.54,4.35,-0.60,-1.62,4.12
4.59,-2.02,4.75,-0.42,-1.90,3.89
6.77,-1.04,4.49,-0.27,-1.98,3.60
9.54,0.40,4.23,-0.21,-1.83,3.25
12.70,2.25,4.13,-0.24,-1.45,2.83
15.33,4.45,4.83,-0.34,-0.86,2.38
17.00,6.55,6.58,-0.45,-0.24,1.95
17.77,8.13,8.84,-0.52,0.22,1.50
17.98,9.17,11.03,-0.51,0.44,1.07
18.13,9.89,12.43,-0.44,0.43,0.63
18.30,10.64,13.02,-0.34,0.34,0.18
18.12,11.37,13.01,-0.24,0.24,-0.25
17.24,11.90,12.56,-0.16,0.18,-0.66
15.79,12.09,11.85,-0.11,0.15,-1.00
14.21,11.91,11.06,-0.08,0.12,-1.32
12.62,11.48,10.21,-0.06,0.12,-1.61
10.94,10.81,9.40,-0.07,0.12,-1.89
9.28,10.05,8.69,-0.09,0.12,-2.14
7.85,9.09,8.29,-0.10,0.09,-2.35
6.71,7.90,8.03,-0.07,-0.04,-2.59
5.74,6.70,7.50,-0.03,-0.20,-2.85
5.06,5.64,6.69,-0.02,-0.31,-3.10
4.70,4.76,5.66,-0.06,-0.28,-3.33
4.38,3.98,4.68,-0.13,-0.12,-3.56
3.91,3.17,3.74,-0.22,0.15,-3.77
3.36,2.23,2.98,-0.31,0.50,-3.96
2.80,1.17,2.32,-0.39,0.85,-4.14
2.25,0.06,1.62,-0.44,1.22,-4.30
1.66,-1.06,1.04,-0.44,1.58,-4.45
1.06,-2.13,0.51,-0.42,1.93,-4.59
0.49,-3.13,0.11,-0.36,2.24,-4.72
0.01,-3.98,-0.35,-0.26,2.49,-4.85
-0.41,-4.63,-0.78,-0.14,2.70,-4.98
-0.94,-5.12,-1.25,-0.01,2.84,-5.09
-1.59,-5.55,-1.75,0.12,2.95,-5.15
-2.26,-6.04,-2.12,0.25,3.01,-5.17
-3.15,-6.63,-2.11,0.36,2.93,-5.17
-4.45,-7.18,-1.77,0.46,2.61,-5.14
-5.77,-7.45,-1.85,0.54,2.14,-5.06
-6.47,-7.41,-2.77,0.58,1.74,-4.94
-6.78,-7.27,-3.88,0.53,1.60,-4.85
-7.36,-7.35,-4.52,0.45,1.66,-4.75
-8.89,-7.89,-4.07,0.34,1.72,-4.58
-11.32,-8.67,-2.90,0.32,1.58,-4.34
-14.04,-9.03,-2.26,0.40,1.22,-4.07
-16.40,-8.56,-2.58,0.51,0.85,-3.82
-18.43,-7.35,-3.14,0.58,0.65,-3.51
-19.97,-6.04,-3.81,0.56,0.64,-3.11
-21.17,-5.14,-4.13,0.48,0.81,-2.79
-23.19,-4.21,-4.09,0.34,0.99,-2.45
-25.13,-3.73,-3.31,0.22,1.04,-1.95
-26.64,-3.61,-2.05,0.18,0.78,-1.43
-27.50,-3.54,-1.47,0.22,0.25,-0.92
-27.60,-3.57,-1.60,0.25,-0.26,-0.38
-26.99,-3.78,-1.65,0.22,-0.57,0.16
-25.91,-4.13,-1.36,0.16,-0.77,0.67
-24.68,-4.53,-1.18,0.12,-0.86,1.12
-23.42,-4.97,-0.93,0.08,-0.85,1.56
-22.07,-5.42,-0.56,0.07,-0.81,1.96
-20.65,-5.83,-0.24,0.07,-0.82,2.32
-19.23,-6.13,-0.04,0.10,-0.87,2.63
-17.83,-6.38,-0.07,0.13,-0.93,2.93
-16.47,-6.57,-0.11,0.14,-0.97,3.19
-15.21,-6.65,-0.06,0.16,-1.01,3.41
-14.03,-6.66,-0.10,0.18,-1.04,3.61
-12.96,-6.61,-0.08,0.19,-1.03,3.80
-12.01,-6.51,-0.14,0.21,-0.98,3.99
-11.23,-6.40,-0.16,0.22,-0.91,4.16
-10.45,-6.39,-0.25,0.24,-0.82,4.33
-9.60,-6.46,-0.34,0.24,-0.72,4.48
-8.62,-6.53,-0.32,0.22,-0.63,4.60
-7.67,-6.55,-0.06,0.22,-0.63,4.67
-6.82,-6.39,-0.13,0.25,-0.74,4.75
-5.90,-5.92,-0.49,0.23,-0.81,4.82
-5.06,-5.22,-0.53,0.19,-0.83,4.85
-4.30,-4.49,-0.47,0.15,-0.85,4.86
-3.68,-4.01,-0.53,0.10,-0.82,4.83
-3.32,-3.92,-0.22,0.06,-0.74,4.77
-3.09,-4.25,0.09,0.07,-0.78,4.74
-2.58,-4.69,-0.13,0.10,-0.87,4.72
-1.83,-4.85,-0.07,0.10,-0.95,4.63
-1.21,-4.48,0.07,0.14,-1.11,4.47
-0.85,-3.63,-0.17,0.18,-1.20,4.28
-0.63,-2.61,-0.01,0.20,-1.18,4.16
-0.26,-1.69,0.43,0.22,-1.16,4.07
0.34,-0.92,1.02,0.22,-1.14,3.96
0.97,-0.26,1.89,0.24,-1.17,3.82
1.69,0.33,2.75,0.26,-1.24,3.65
2.85,1.02,3.50,0.25,-1.31,3.47
4.91,1.98,3.80,0.20,-1.28,3.27
7.47,3.40,4.15,0.11,-1.04,3.07
9.80,5.15,4.55,0.00,-0.69,2.89
11.53,7.00,5.19,-0.12,-0.23,2.76
13.43,8.57,6.41,-0.22,0.16,2.58
15.01,9.87,7.65,-0.27,0.46,2.21
15.90,10.98,8.83,-0.27,0.63,1.73
16.67,12.00,9.54,-0.26,0.65,1.24
17.58,12.91,9.67,-0.23,0.65,0.76
18.19,13.60,9.33,-0.22,0.67,0.29
18.12,13.93,8.57,-0.24,0.75,-0.15
17.29,13.87,7.92,-0.30,0.83,-0.57
15.91,13.52,7.44,-0.38,0.87,-0.94
14.30,12.86,7.02,-0.46,0.87,-1.24
12.73,11.94,6.75,-0.55,0.84,-1.46
11.26,10.86,6.47,-0.62,0.76,-1.64
9.93,9.67,6.26,-0.68,0.64,-1.78
8.98,8.38,6.20,-0.69,0.49,-1.93
8.19,7.15,5.73,-0.66,0.29,-2.17
7.51,6.15,5.24,-0.71,0.20,-2.48
6.57,5.33,5.04,-0.74,0.17,-2.80
5.57,4.53,4.53,-0.78,0.19,-3.03
4.73,3.66,3.97,-0.83,0.30,-3.22
3.85,2.79,3.57,-0.86,0.45,-3.42
2.95,1.97,3.20,-0.87,0.61,-3.60
2.21,1.21,2.89,-0.83,0.76,-3.77
1.58,0.45,2.74,-0.74,0.89,-3.95
1.07,-0.41,2.44,-0.62,0.99,-4.17
0.40,-1.24,2.07,-0.48,1.09,-4.44
-0.51,-1.90,1.63,-0.35,1.18,-4.67
-1.35,-2.37,0.93,-0.25,1.30,-4.84
-1.89,-2.64,-0.04,-0.20,1.51,-4.92
-2.29,-2.83,-0.92,-0.20,1.82,-4.94
-2.69,-3.04,-1.44,-0.20,2.15,-4.90
-3.22,-3.36,-1.85,-0.19,2.47,-4.81
-3.94,-3.82,-1.83,-0.16,2.79,-4.68
-4.95,-4.39,-1.28,-0.09,3.01,-4.51
-6.13,-4.88,-0.68,0.03,3.05,-4.36
-7.27,-5.14,-0.31,0.20,2.90,-4.25
-8.46,-5.23,-0.33,0.41,2.53,-4.16
-9.81,-5.32,-0.80,0.62,2.02,-4.05
-11.17,-5.45,-1.45,0.77,1.60,-3.88
-12.50,-5.54,-1.79,0.80,1.42,-3.63
-13.92,-5.46,-1.74,0.74,1.49,-3.34
-15.86,-5.15,-1.16,0.66,1.65,-3.02
-18.05,-4.63,-0.91,0.64,1.73,-2.68
-19.64,-4.22,-1.02,0.69,1.68,-2.49
-21.64,-2.76,-1.71,0.71,1.53,-2.33
-22.99,-1.33,-2.25,0.65,1.45,-1.93
-23.62,-0.55,-2.31,0.58,1.38,-1.49
-24.21,-0.30,-2.34,0.52,1.23,-1.07
-24.56,-0.51,-2.56,0.48,0.99,-0.64
-24.47,-0.98,-2.84,0.45,0.70,-0.19
-23.96,-1.54,-3.17,0.42,0.42,0.27
-23.13,-2.06,-3.66,0.37,0.19,0.72
-22.07,-2.49,-4.13,0.28,0.07,1.17
-20.88,-2.93,-4.37,0.17,-0.00,1.59
-19.71,-3.42,-4.44,0.07,-0.08,1.96
-18.69,-3.89,-4.42,-0.02,-0.19,2.30
-17.67,-4.24,-4.34,-0.11,-0.33,2.61
-16.50,-4.40,-4.23,-0.19,-0.45,2.90
-15.26,-4.39,-4.13,-0.29,-0.53,3.16
-14.13,-4.36,-3.79,-0.38,-0.55,3.42
-12.99,-4.32,-3.40,-0.45,-0.59,3.68
-11.86,-4.25,-3.14,-0.52,-0.59,3.86
-11.12,-4.10,-2.53,-0.55,-0.61,4.01
-10.09,-3.88,-2.21,-0.58,-0.65,4.12
-9.13,-3.67,-1.76,-0.59,-0.65,4.20
-7.91,-3.30,-1.40,-0.62,-0.63,4.25
-6.96,-2.81,-1.00,-0.64,-0.61,4.23
-6.51,-2.48,-0.59,-0.63,-0.60,4.24
-5.99,-2.15,-0.45,-0.62,-0.64,4.38
-5.24,-1.61,-0.28,-0.65,-0.64,4.45
-4.53,-0.96,0.17,-0.67,-0.64,4.43
-4.23,-0.73,0.94,-0.64,-0.68,4.41
-4.01,-0.93,1.64,-0.56,-0.87,4.48
-3.45,-1.03,2.11,-0.49,-1.11,4.49
-2.83,-0.82,2.59,-0.38,-1.39,4.42
-2.05,-0.48,2.66,-0.26,-1.67,4.34
-1.04,-0.14,2.54,-0.15,-1.84,4.29
0.30,0.25,2.15,-0.10,-1.82,4.26
1.85,0.81,1.68,-0.10,-1.57,4.20
3.31,1.59,1.03,-0.18,-1.18,4.10
4.46,2.46,0.88,-0.32,-0.69,3.97
5.42,3.20,1.47,-0.44,-0.26,3.80
6.17,3.71,2.39,-0.52,0.04,3.60
6.67,4.06,3.74,-0.56,0.22,3.38
7.06,4.44,4.94,-0.54,0.25,3.12
7.37,5.04,6.18,-0.48,0.20,2.84
7.88,5.84,7.15,-0.38,0.05,2.56
8.83,6.79,7.96,-0.26,-0.16,2.26
10.19,7.78,8.26,-0.15,-0.33,1.94
11.73,8.76,8.56,-0.07,-0.40,1.60
13.24,9.66,8.57,-0.03,-0.38,1.26
14.50,10.38,8.53,-0.04,-0.20,0.90
aX,aY,aZ,gX,gY,gZ
-24.88,-3.78,0.96,0.17,1.55,-2.43
-26.40,-4.30,1.42,0.25,1.26,-1.87
-27.55,-4.66,1.49,0.36,0.78,-1.16
-27.65,-4.75,1.24,0.45,0.31,-0.36
-26.75,-4.55,0.73,0.50,-0.12,0.42
-25.39,-4.06,0.24,0.50,-0.46,1.11
-23.87,-3.47,-0.02,0.47,-0.73,1.70
-22.28,-3.07,-0.05,0.46,-0.94,2.20
-20.71,-2.94,-0.17,0.50,-1.11,2.62
-19.23,-3.03,-0.41,0.55,-1.25,2.98
-17.74,-3.19,-0.66,0.57,-1.29,3.30
-16.33,-3.32,-0.43,0.58,-1.27,3.55
-15.02,-3.42,-0.06,0.61,-1.27,3.74
-13.87,-3.36,0.10,0.66,-1.29,3.88
-12.91,-3.13,-0.02,0.69,-1.25,3.99
-12.11,-2.80,-0.16,0.67,-1.12,4.11
-11.33,-2.50,0.02,0.64,-0.97,4.21
-10.78,-2.41,0.23,0.62,-0.87,4.30
-10.38,-2.59,0.42,0.62,-0.84,4.43
-9.43,-2.72,0.45,0.64,-0.98,4.59
-7.86,-2.61,-0.04,0.64,-1.05,4.64
-6.58,-2.44,-0.10,0.62,-1.01,4.64
-5.20,-2.33,-0.34,0.57,-0.97,4.68
-3.74,-2.09,-0.74,0.47,-0.80,4.65
-2.65,-1.68,-0.70,0.33,-0.54,4.54
-1.95,-1.25,-0.51,0.22,-0.33,4.41
-1.41,-0.90,-0.68,0.13,-0.20,4.27
-0.91,-0.70,-0.93,0.08,-0.13,4.14
-0.08,-0.47,-1.57,0.03,-0.07,4.00
0.78,-0.11,-1.94,-0.07,0.13,3.78
1.40,0.34,-1.45,-0.19,0.39,3.53
1.70,0.76,-0.30,-0.27,0.49,3.28
1.98,1.21,0.48,-0.33,0.51,3.02
2.08,1.78,1.81,-0.37,0.44,2.77
2.48,2.49,2.79,-0.41,0.26,2.53
3.41,3.34,4.19,-0.45,0.09,2.31
4.88,4.26,5.69,-0.48,-0.15,2.11
6.80,5.21,7.25,-0.48,-0.32,1.91
9.26,6.13,8.59,-0.44,-0.51,1.67
12.05,7.10,9.13,-0.41,-0.57,1.36
14.49,8.30,9.50,-0.42,-0.47,1.01
15.98,9.43,9.76,-0.48,-0.27,0.72
17.59,10.11,10.48,-0.52,-0.12,0.42
18.50,10.41,10.95,-0.50,-0.07,-0.01
18.47,10.51,11.18,-0.47,-0.06,-0.48
17.88,10.45,10.99,-0.42,-0.09,-0.95
16.80,10.25,10.34,-0.40,-0.11,-1.41
15.26,9.85,9.30,-0.41,-0.09,-1.83
13.42,9.21,8.12,-0.47,-0.01,-2.19
11.42,8.34,7.01,-0.56,0.10,-2.47
9.43,7.24,5.98,-0.66,0.23,-2.69
7.56,5.98,5.06,-0.76,0.36,-2.84
5.91,4.60,4.30,-0.84,0.46,-2.96
4.31,3.24,3.79,-0.89,0.53,-3.08
2.88,1.45,3.83,-0.85,0.44,-3.16
2.03,-0.47,3.51,-0.75,0.17,-3.62
-0.03,-1.04,2.91,-0.67,-0.18,-4.13
-1.04,-1.24,1.56,-0.67,-0.37,-4.30
-0.84,-1.75,0.28,-0.72,-0.27,-4.35
-0.55,-2.24,-0.97,-0.82,0.07,-4.46
-0.89,-2.67,-1.67,-0.95,0.61,-4.58
-1.97,-3.36,-1.28,-0.99,1.08,-4.65
-3.26,-4.35,-0.61,-0.92,1.29,-4.65
-4.27,-5.57,0.37,-0.76,1.17,-4.64
-4.95,-6.71,0.81,-0.52,0.76,-4.70
-5.32,-7.33,0.27,-0.34,0.34,-4.81
-5.48,-7.29,-0.78,-0.28,0.11,-4.89
-5.51,-6.77,-1.88,-0.37,0.15,-4.89
-6.10,-6.19,-2.26,-0.57,0.43,-4.79
-7.54,-5.93,-1.54,-0.79,0.78,-4.60
-9.49,-5.93,0.05,-0.95,1.00,-4.35
-11.56,-5.90,2.02,-0.98,0.98,-4.11
-13.51,-5.86,3.84,-0.88,0.76,-3.91
-15.25,-5.66,4.94,-0.72,0.52,-3.87
-17.62,-4.70,5.83,-0.57,0.46,-3.79
-20.02,-3.75,6.96,-0.38,0.48,-3.51
-22.31,-3.03,7.72,-0.13,0.53,-3.19
-24.55,-2.23,8.18,0.11,0.59,-2.82
-26.20,-1.30,8.49,0.32,0.66,-2.35
-27.39,-0.74,8.40,0.48,0.81,-1.81
-28.40,-0.84,8.24,0.58,1.04,-1.22
-29.10,-1.47,8.67,0.68,1.13,-0.66
-29.14,-2.22,8.76,0.84,0.95,-0.20
-29.53,-2.84,7.93,1.03,0.76,0.26
-30.09,-3.60,6.73,1.14,0.80,0.99
-29.42,-4.56,6.17,1.19,0.87,1.83
-27.44,-5.19,5.52,1.27,0.82,2.51
-24.91,-5.49,4.29,1.34,0.82,3.04
-22.31,-5.96,3.00,1.31,0.99,3.47
-20.08,-6.64,2.51,1.23,1.16,3.79
-18.14,-7.27,2.15,1.14,1.20,4.04
-16.17,-7.75,1.59,1.07,1.12,4.27
-13.96,-8.14,0.83,0.96,1.02,4.47
-11.80,-8.23,0.31,0.84,0.87,4.60
-9.94,-8.04,-0.12,0.73,0.64,4.67
-8.26,-7.69,-0.61,0.63,0.42,4.72
-6.79,-7.25,-1.07,0.52,0.23,4.75
-5.47,-6.81,-1.62,0.41,0.10,4.76
-4.37,-6.29,-1.96,0.28,0.05,4.76
-3.50,-5.74,-2.08,0.15,0.03,4.76
-2.85,-5.19,-2.15,0.03,0.02,4.75
-2.41,-4.71,-2.02,-0.09,0.04,4.73
-2.19,-4.28,-1.70,-0.16,0.00,4.76
-1.89,-3.96,-1.36,-0.24,-0.03,4.76
-1.45,-3.67,-0.82,-0.29,-0.10,4.70
-0.88,-3.38,-0.51,-0.32,-0.20,4.59
-0.42,-3.05,-0.42,-0.34,-0.27,4.47
-0.11,-2.69,-0.55,-0.39,-0.24,4.38
-0.03,-2.28,-0.13,-0.47,-0.15,4.29
-0.03,-1.85,1.06,-0.51,-0.13,4.18
0.08,-1.48,2.43,-0.49,-0.25,4.07
0.53,-1.12,3.95,-0.41,-0.50,3.94
1.34,-0.63,5.14,-0.26,-0.84,3.82
2.23,0.09,6.28,-0.06,-1.19,3.75
3.56,0.93,6.53,0.14,-1.50,3.85
7.08,1.67,6.09,0.26,-1.67,3.89
11.11,2.84,5.13,0.29,-1.43,3.75
14.90,4.53,4.50,0.24,-1.00,3.49
17.76,6.45,4.30,0.14,-0.47,3.16
20.02,7.92,5.23,0.04,-0.00,2.80
21.93,8.33,6.41,-0.00,0.23,2.29
23.34,8.28,7.31,0.01,0.21,1.60
24.21,8.45,7.60,0.07,-0.04,0.84
24.08,8.89,7.09,0.13,-0.36,0.08
23.40,9.41,6.04,0.12,-0.64,-0.62
22.19,9.78,4.51,-0.00,-0.74,-1.27
20.46,9.79,3.19,-0.27,-0.59,-1.82
18.43,9.22,2.88,-0.63,-0.27,-2.24
16.02,8.19,4.32,-0.89,-0.07,-2.56
13.86,6.94,4.24,-1.03,-0.12,-2.87
11.60,5.86,4.14,-1.17,-0.16,-3.17
9.51,5.09,3.99,-1.31,-0.23,-3.38
7.83,4.55,3.59,-1.45,-0.24,-3.48
6.59,3.97,3.12,-1.61,-0.18,-3.52
5.60,3.18,2.77,-1.74,-0.06,-3.52
4.72,2.14,2.57,-1.81,0.04,-3.49
3.89,0.86,2.41,-1.80,0.14,-3.50
2.78,-0.45,2.54,-1.73,0.20,-3.59
1.33,-1.54,2.89,-1.60,0.19,-3.75
-0.23,-2.33,3.13,-1.47,0.01,-4.02
-1.49,-2.84,2.93,-1.39,-0.11,-4.33
-2.32,-3.04,2.62,-1.37,-0.11,-4.63
-2.62,-2.97,1.75,-1.45,0.15,-4.85
-2.93,-2.95,1.46,-1.55,0.74,-4.95
-4.00,-3.28,2.32,-1.55,1.31,-4.96
-6.17,-3.97,3.80,-1.34,1.44,-4.89
-8.72,-4.87,4.53,-0.98,1.14,-4.73
-10.19,-5.87,5.12,-0.56,0.50,-4.72
-11.64,-5.25,5.02,-0.22,-0.30,-4.80
-12.45,-3.85,4.75,-0.03,-0.85,-4.65
-12.90,-2.55,5.37,0.07,-1.18,-4.38
-13.71,-1.88,6.41,0.25,-1.59,-4.11
-14.69,-1.66,6.27,0.39,-2.05,-3.84
-15.22,-1.55,6.09,0.39,-2.26,-3.47
-15.06,-1.42,6.37,0.29,-2.29,-3.05
-14.68,-1.27,6.86,0.14,-2.11,-2.68
-14.43,-1.07,7.93,0.02,-1.77,-2.35
-14.13,-0.77,8.77,-0.04,-1.41,-2.10
-14.42,-0.09,9.07,-0.06,-0.97,-1.89
-15.23,0.65,8.89,-0.08,-0.45,-1.62
-16.19,1.10,8.96,-0.12,0.14,-1.26
-17.20,1.31,9.66,-0.13,0.66,-0.91
-18.38,1.52,10.41,-0.10,1.07,-0.58
-19.61,1.80,11.01,-0.04,1.41,-0.24
-20.69,2.03,11.63,0.06,1.67,0.12
-21.40,1.97,11.82,0.18,1.82,0.52
-21.58,1.51,11.59,0.31,1.94,0.96
-21.29,0.82,11.37,0.44,2.06,1.43
-20.52,0.10,11.04,0.58,2.15,1.88
-19.33,-0.52,10.41,0.72,2.21,2.30
-17.93,-0.95,9.48,0.84,2.24,2.67
-16.51,-1.22,8.51,0.96,2.22,2.99
-15.12,-1.49,7.36,1.06,2.15,3.28
-13.72,-1.81,6.17,1.14,2.04,3.54
-12.27,-2.21,5.13,1.20,1.91,3.78
-10.75,-2.67,4.07,1.23,1.74,3.98
-9.23,-3.14,2.99,1.23,1.55,4.15
-7.77,-3.51,1.86,1.18,1.34,4.29
-6.31,-3.62,0.79,1.07,1.21,4.39
-5.03,-3.48,-0.11,0.90,1.18,4.44
-3.94,-3.22,-0.68,0.68,1.27,4.48
-3.11,-3.02,-0.95,0.43,1.41,4.52
-2.55,-3.02,-0.84,0.18,1.56,4.57
-2.15,-3.23,-0.48,-0.05,1.66,4.59
-1.90,-3.50,0.06,-0.20,1.60,4.56
-1.52,-3.72,0.18,-0.28,1.43,4.47
-1.01,-3.71,0.06,-0.38,1.27,4.34
-0.38,-3.36,-0.08,-0.50,1.15,4.20
0.17,-2.61,-0.13,-0.64,1.10,4.08
0.48,-1.58,0.53,-0.78,1.09,4.02
0.77,-0.52,2.12,-0.87,1.00,4.05
1.24,0.27,4.02,-0.85,0.72,4.09
2.04,0.84,5.35,-0.74,0.30,4.08
3.39,1.42,6.14,-0.61,-0.10,4.00
5.65,2.29,6.39,-0.51,-0.39,3.84
8.46,3.55,6.24,-0.45,-0.43,3.63
10.62,5.21,6.42,-0.43,-0.33,3.49
13.75,6.50,7.13,-0.41,-0.20,3.35
16.85,7.44,8.17,-0.36,0.00,3.00
18.95,8.30,9.48,-0.30,0.17,2.49
20.40,9.22,10.76,-0.20,0.23,1.94
21.69,10.03,11.67,-0.05,0.18,1.36
22.58,10.68,11.62,0.11,0.09,0.75
22.86,11.29,10.69,0.22,0.06,0.11
22.22,11.85,9.32,0.25,0.11,-0.53
20.60,12.19,7.79,0.20,0.25,-1.08
18.61,12.05,6.49,0.07,0.42,-1.50
16.64,11.39,5.42,-0.10,0.62,-1.84
14.45,10.35,4.71,-0.28,0.81,-2.13
12.19,9.16,4.36,-0.45,0.93,-2.37
10.10,7.92,4.14,-0.57,0.93,-2.56
8.30,6.60,3.87,-0.65,0.84,-2.72
6.86,5.26,3.96,-0.66,0.66,-2.86
5.86,3.98,3.58,-0.62,0.36,-3.02
5.20,2.81,2.77,-0.59,0.10,-3.21
4.61,1.80,1.87,-0.61,-0.04,-3.44
3.99,0.91,1.10,-0.67,-0.04,-3.65
3.40,0.05,0.66,-0.75,0.07,-3.84
2.99,-0.86,0.44,-0.81,0.23,-4.03
2.66,-1.79,0.34,-0.83,0.39,-4.23
2.20,-2.68,0.27,-0.83,0.54,-4.45
1.56,-3.46,-0.01,-0.80,0.69,-4.65
0.88,-4.12,-0.27,-0.77,0.85,-4.83
0.14,-4.58,-0.39,-0.71,0.95,-5.03
-0.61,-4.86,-0.46,-0.65,0.95,-5.23
-1.63,-5.06,-0.20,-0.57,0.86,-5.43
-3.02,-5.31,0.32,-0.47,0.67,-5.57
-4.50,-5.66,0.49,-0.41,0.42,-5.64
-5.82,-6.03,0.58,-0.45,0.29,-5.67
-7.01,-6.44,1.22,-0.57,0.32,-5.67
-8.19,-6.83,2.12,-0.70,0.45,-5.61
-9.39,-7.29,3.38,-0.75,0.58,-5.53
-10.93,-8.40,4.74,-0.60,0.52,-5.44
-12.96,-9.36,5.22,-0.37,0.29,-5.48
-15.44,-9.14,5.65,-0.14,0.05,-5.36
-16.98,-8.46,5.88,0.05,-0.23,-5.05
-17.59,-7.52,5.59,0.17,-0.40,-4.72
-17.69,-6.40,5.20,0.19,-0.39,-4.41
-17.18,-5.49,4.53,0.15,-0.26,-4.14
-16.55,-4.99,4.02,0.06,0.09,-3.93
-16.72,-5.17,3.88,-0.01,0.51,-3.74
-17.64,-6.05,3.79,-0.02,0.85,-3.51
-18.82,-7.24,3.80,-0.02,1.10,-3.24
-19.54,-8.15,4.02,-0.02,1.19,-3.00
-20.80,-8.25,3.34,-0.06,1.35,-2.66
-22.40,-8.09,3.54,-0.13,1.56,-2.05
-23.65,-8.14,4.02,-0.15,1.61,-1.23
-24.27,-8.23,4.62,-0.11,1.48,-0.37
-24.19,-8.20,4.89,0.01,1.14,0.45
-23.36,-7.96,4.39,0.15,0.74,1.19
-22.05,-7.55,3.56,0.24,0.45,1.82
-20.58,-7.08,2.90,0.30,0.29,2.34
-19.08,-6.71,2.40,0.31,0.26,2.75
-17.72,-6.45,2.22,0.32,0.32,3.09
-16.48,-6.31,2.06,0.33,0.38,3.37
-15.31,-6.21,1.89,0.33,0.44,3.60
-14.22,-6.13,1.73,0.33,0.46,3.80
-13.13,-6.11,1.56,0.34,0.44,3.98
-12.05,-6.09,1.25,0.34,0.37,4.12
-11.01,-6.07,0.80,0.33,0.28,4.24
-9.95,-6.04,0.27,0.30,0.17,4.34
-8.88,-6.04,-0.31,0.25,0.07,4.42
-7.85,-6.05,-0.86,0.18,-0.03,4.48
-6.86,-6.05,-1.30,0.09,-0.13,4.54
-5.89,-6.02,-1.64,-0.00,-0.27,4.58
-4.95,-5.94,-1.96,-0.11,-0.39,4.60
-4.14,-5.79,-2.24,-0.23,-0.47,4.62
-3.54,-5.57,-2.38,-0.38,-0.50,4.63
-3.26,-5.20,-2.42,-0.54,-0.46,4.63
-3.30,-4.71,-2.28,-0.70,-0.41,4.61
-3.52,-4.21,-1.83,-0.83,-0.43,4.61
-3.25,-3.62,-1.48,-0.94,-0.50,4.60
-2.89,-2.87,-0.90,-1.00,-0.56,4.53
-2.72,-2.09,-0.33,-1.04,-0.58,4.47
-2.75,-1.43,0.17,-1.07,-0.51,4.45
-2.90,-0.95,1.21,-1.08,-0.44,4.45
-2.77,-0.63,2.30,-1.03,-0.49,4.45
-2.24,-0.43,2.65,-0.97,-0.57,4.40
-1.46,-0.22,2.47,-0.93,-0.58,4.32
-0.64,0.08,2.11,-0.96,-0.52,4.20
-0.01,0.62,2.29,-1.05,-0.41,4.08
0.52,1.23,3.55,-1.13,-0.39,3.98
1.37,1.65,5.74,-1.11,-0.61,3.91
2.91,1.68,7.75,-0.95,-1.07,3.80
4.91,1.57,8.46,-0.68,-1.59,3.66
7.66,1.82,7.69,-0.48,-1.88,3.44
10.77,3.20,7.16,-0.39,-1.85,3.16
13.89,5.45,7.13,-0.36,-1.60,2.88
16.43,7.61,7.43,-0.35,-1.15,2.62
18.46,8.83,8.05,-0.39,-0.56,2.34
20.09,9.10,9.38,-0.45,0.04,1.93
20.72,9.11,11.28,-0.45,0.43,1.42
20.80,9.30,12.60,-0.35,0.55,0.95
20.94,9.73,13.07,-0.22,0.53,0.49
20.78,10.18,12.73,-0.09,0.51,0.02
20.10,10.38,12.07,-0.02,0.58,-0.42
19.02,10.16,11.21,-0.01,0.74,-0.81
17.54,9.57,10.32,-0.05,1.00,-1.15
15.74,8.75,9.66,-0.13,1.33,-1.39
14.27,7.62,9.33,-0.18,1.63,-1.59
aX,aY,aZ,gX,gY,gZ
-30.70,-6.23,0.26,1.00,-0.18,-0.40
-29.19,-7.16,-0.18,0.97,-0.23,0.27
-27.16,-7.80,-0.47,0.90,-0.24,0.97
-25.04,-7.89,-0.54,0.82,-0.29,1.59
-23.06,-7.60,-0.53,0.74,-0.41,2.13
-21.28,-7.22,-0.47,0.69,-0.59,2.60
-19.54,-6.87,-0.50,0.68,-0.80,3.00
-17.66,-6.56,-0.71,0.70,-0.97,3.32
-15.81,-6.20,-0.86,0.72,-1.07,3.57
-14.15,-5.80,-1.03,0.74,-1.09,3.79
-12.70,-5.39,-1.12,0.75,-1.03,3.95
-11.76,-5.02,-1.10,0.77,-0.96,4.05
-11.23,-4.80,-1.19,0.79,-0.88,4.16
-10.77,-4.84,-1.19,0.81,-0.76,4.30
-10.31,-5.10,-1.22,0.82,-0.63,4.46
-9.75,-5.42,-1.21,0.83,-0.52,4.65
-9.06,-5.72,-1.11,0.86,-0.49,4.92
-8.04,-5.94,-1.40,0.87,-0.51,5.16
-7.06,-5.94,-1.60,0.85,-0.56,5.32
-6.07,-5.80,-1.79,0.82,-0.66,5.43
-5.11,-5.54,-2.10,0.79,-0.77,5.51
-4.21,-5.28,-2.50,0.75,-0.87,5.60
-3.30,-5.07,-2.86,0.68,-0.89,5.68
-2.48,-4.92,-2.99,0.57,-0.88,5.74
-1.92,-4.70,-2.94,0.44,-0.86,5.76
-1.91,-4.39,-2.78,0.29,-0.80,5.83
-1.53,-4.35,-2.49,0.13,-0.76,5.97
-0.63,-4.50,-2.17,-0.01,-0.76,6.06
0.66,-4.70,-1.91,-0.14,-0.81,6.06
2.35,-4.89,-1.86,-0.27,-0.80,5.93
4.17,-4.76,-1.31,-0.43,-0.64,5.59
5.58,-4.05,-0.68,-0.58,-0.44,5.06
6.08,-2.86,0.14,-0.67,-0.15,4.47
5.76,-1.59,1.44,-0.71,0.06,4.02
5.30,-0.50,2.62,-0.72,0.11,3.70
5.12,0.47,3.83,-0.68,0.05,3.57
5.90,1.32,5.22,-0.63,-0.20,3.58
7.90,2.10,6.44,-0.50,-0.47,3.57
10.76,2.94,7.55,-0.35,-0.66,3.47
14.07,3.85,8.13,-0.20,-0.64,3.21
17.07,4.98,8.49,-0.11,-0.38,2.82
19.23,6.35,9.11,-0.09,0.01,2.38
20.72,7.63,9.63,-0.08,0.43,1.95
21.79,8.49,10.19,-0.10,0.81,1.55
22.62,8.86,10.75,-0.09,1.08,1.18
23.21,8.86,11.03,-0.06,1.22,0.79
23.32,8.70,10.89,0.00,1.23,0.35
22.82,8.56,10.11,0.05,1.15,-0.12
21.65,8.31,9.19,0.04,1.09,-0.60
20.08,7.77,8.94,-0.00,0.98,-1.01
18.81,6.87,9.07,-0.01,0.76,-1.36
18.03,5.71,8.74,-0.00,0.50,-1.67
17.39,4.46,8.21,-0.02,0.32,-2.00
16.55,3.23,7.65,-0.06,0.23,-2.35
15.46,2.11,7.11,-0.13,0.20,-2.71
14.25,1.12,6.91,-0.19,0.20,-3.08
12.93,0.21,6.52,-0.23,0.21,-3.47
11.53,-0.60,5.88,-0.28,0.31,-3.85
9.98,-1.29,5.22,-0.33,0.45,-4.19
8.33,-1.97,4.49,-0.38,0.64,-4.47
6.68,-2.77,3.89,-0.41,0.83,-4.68
5.27,-3.75,2.96,-0.42,1.00,-4.87
3.97,-4.75,1.98,-0.42,1.22,-5.03
3.12,-6.17,1.07,-0.39,1.47,-5.18
3.02,-8.05,-0.30,-0.27,1.79,-5.60
1.55,-8.16,-1.05,-0.24,2.15,-6.19
-0.15,-7.19,-1.55,-0.18,2.53,-6.47
-1.25,-6.79,-1.75,-0.06,2.91,-6.46
-1.67,-7.30,-1.98,0.10,3.26,-6.37
-2.21,-8.28,-2.18,0.30,3.53,-6.32
-3.54,-9.26,-2.26,0.51,3.60,-6.29
-5.07,-10.20,-2.45,0.76,3.41,-6.18
-5.80,-10.55,-3.39,0.96,3.12,-6.06
-5.79,-9.95,-5.07,1.02,3.03,-5.92
-5.77,-9.08,-6.64,0.98,3.15,-5.70
-6.50,-8.60,-7.67,0.92,3.30,-5.40
-7.98,-8.45,-7.36,0.86,3.40,-5.04
-9.63,-8.28,-6.04,0.89,3.25,-4.70
-11.05,-7.86,-5.10,0.99,2.79,-4.39
-12.02,-7.06,-5.29,1.11,2.25,-4.09
-12.73,-6.06,-6.15,1.16,1.81,-3.78
-13.52,-5.46,-7.14,1.10,1.54,-3.49
-15.06,-5.23,-7.39,0.96,1.43,-3.27
-17.44,-5.03,-6.90,0.82,1.32,-3.03
-19.85,-4.85,-6.53,0.74,1.12,-2.70
-21.69,-4.63,-6.73,0.68,0.86,-2.35
-22.67,-4.57,-7.12,0.60,0.60,-2.06
-24.11,-4.41,-7.65,0.47,0.45,-1.80
-25.66,-4.27,-7.68,0.27,0.35,-1.45
-27.16,-4.14,-7.17,0.10,0.20,-1.01
-28.31,-4.16,-6.62,-0.01,-0.04,-0.49
-28.96,-4.31,-6.44,-0.07,-0.33,0.10
-28.79,-4.63,-6.23,-0.11,-0.63,0.72
-28.03,-5.15,-5.98,-0.13,-0.92,1.31
-26.93,-5.77,-5.84,-0.17,-1.15,1.86
-25.70,-6.17,-5.66,-0.25,-1.27,2.39
-24.48,-6.17,-5.45,-0.35,-1.32,2.89
-23.41,-5.93,-5.37,-0.45,-1.38,3.34
-22.39,-5.60,-5.23,-0.57,-1.40,3.76
-21.39,-5.49,-4.64,-0.66,-1.42,4.16
-20.16,-5.53,-3.89,-0.68,-1.56,4.56
-18.66,-5.40,-3.39,-0.66,-1.74,4.86
-17.08,-4.95,-3.00,-0.62,-1.88,5.08
-15.43,-4.35,-2.94,-0.54,-1.99,5.24
-13.69,-3.64,-2.73,-0.47,-2.01,5.33
-12.22,-2.98,-2.53,-0.39,-1.97,5.39
-10.96,-2.48,-2.59,-0.32,-1.86,5.45
-9.72,-2.24,-2.66,-0.28,-1.70,5.53
-8.49,-2.23,-2.51,-0.23,-1.55,5.59
-7.50,-2.42,-2.26,-0.15,-1.47,5.64
-6.62,-2.78,-2.15,-0.06,-1.45,5.70
-5.66,-3.29,-2.16,0.03,-1.40,5.73
-4.75,-3.85,-2.24,0.09,-1.36,5.73
-3.88,-4.43,-2.27,0.13,-1.30,5.72
-2.99,-5.02,-2.31,0.12,-1.25,5.70
-2.10,-5.53,-2.50,0.08,-1.19,5.66
-1.60,-5.98,-2.46,-0.02,-1.09,5.60
-1.54,-6.45,-1.71,-0.11,-1.06,5.54
-1.46,-6.95,-1.10,-0.12,-1.22,5.47
-0.98,-7.25,-0.95,-0.08,-1.47,5.37
-0.06,-7.09,-1.32,-0.02,-1.63,5.26
1.01,-6.46,-1.64,0.01,-1.56,5.14
1.76,-5.56,-1.42,0.03,-1.30,5.01
2.14,-4.64,-0.98,0.06,-0.98,4.87
2.04,-3.63,-0.32,0.07,-0.63,4.73
2.89,-3.08,1.03,0.04,-0.41,4.55
4.99,-2.73,2.24,0.00,-0.40,4.14
7.04,-1.79,3.04,-0.03,-0.26,3.53
8.56,-0.21,3.88,-0.08,-0.03,3.03
10.03,1.28,4.46,-0.19,0.29,2.70
11.47,2.39,5.20,-0.31,0.66,2.44
12.68,3.27,6.14,-0.42,0.92,2.16
13.78,4.07,7.40,-0.50,1.03,1.90
15.33,4.70,8.56,-0.52,0.95,1.55
17.00,5.34,9.57,-0.49,0.76,1.12
18.56,6.06,10.27,-0.44,0.53,0.65
20.12,6.79,10.67,-0.40,0.34,0.16
21.06,7.67,10.87,-0.37,0.24,-0.29
21.46,8.44,10.76,-0.38,0.26,-0.65
21.47,8.95,10.85,-0.42,0.34,-0.94
21.07,9.10,10.87,-0.47,0.40,-1.22
20.22,8.87,10.96,-0.51,0.42,-1.51
19.05,8.34,10.96,-0.52,0.35,-1.79
17.71,7.72,11.05,-0.51,0.20,-2.06
16.39,7.10,10.90,-0.49,-0.01,-2.33
15.13,6.47,10.52,-0.49,-0.23,-2.60
13.94,5.79,10.02,-0.50,-0.41,-2.85
12.74,5.02,9.35,-0.54,-0.52,-3.10
11.41,4.16,8.80,-0.59,-0.55,-3.33
10.10,3.18,8.23,-0.65,-0.55,-3.54
8.84,2.18,7.61,-0.70,-0.51,-3.73
7.65,1.38,7.05,-0.75,-0.47,-3.92
6.56,0.84,6.39,-0.78,-0.42,-4.11
5.53,0.47,5.48,-0.80,-0.27,-4.30
4.58,0.14,4.51,-0.83,-0.05,-4.46
3.74,-0.28,3.37,-0.86,0.25,-4.57
2.97,-0.79,2.11,-0.88,0.64,-4.65
2.24,-1.43,1.27,-0.90,1.09,-4.68
1.44,-2.11,0.77,-0.88,1.50,-4.70
0.61,-2.78,0.21,-0.84,1.82,-4.72
-0.14,-3.36,-0.41,-0.78,2.06,-4.76
-0.77,-3.75,-1.09,-0.69,2.24,-4.82
-1.35,-3.94,-1.66,-0.59,2.39,-4.87
-2.16,-3.99,-1.81,-0.51,2.53,-4.85
-2.16,-5.14,-0.64,-0.30,2.49,-4.93
-3.22,-5.30,0.47,-0.04,2.06,-5.29
-4.35,-4.63,-0.21,0.21,1.52,-5.42
-4.76,-3.91,-1.61,0.32,1.34,-5.34
-4.86,-3.47,-2.17,0.37,1.47,-5.19
-5.19,-3.44,-2.16,0.42,1.69,-5.03
-5.81,-3.81,-2.07,0.49,1.93,-4.86
-6.62,-4.44,-2.09,0.53,2.13,-4.71
-7.67,-4.73,-2.32,0.52,2.29,-4.61
-8.86,-4.68,-2.83,0.44,2.48,-4.52
-9.84,-4.92,-3.22,0.32,2.70,-4.32
-10.55,-5.53,-2.74,0.20,2.79,-4.07
-11.52,-5.93,-1.43,0.20,2.58,-3.80
-12.88,-5.64,-0.56,0.32,2.08,-3.60
-14.71,-4.83,-0.57,0.48,1.54,-3.43
-16.25,-4.19,-1.23,0.60,1.12,-3.17
-17.16,-4.38,-1.83,0.60,0.88,-2.85
-18.02,-4.99,-1.95,0.50,0.79,-2.55
-19.56,-5.75,-1.62,0.37,0.73,-2.29
-21.60,-6.21,-1.50,0.29,0.58,-1.93
-23.38,-5.87,-1.67,0.20,0.44,-1.55
-24.21,-5.35,-1.78,0.14,0.26,-1.23
-24.53,-5.06,-2.49,0.06,0.02,-1.16
-25.82,-4.88,-3.65,-0.16,-0.10,-1.22
-28.45,-4.66,-4.02,-0.49,-0.06,-1.07
-31.28,-4.80,-3.34,-0.76,-0.06,-0.51
-31.98,-5.76,-1.43,-0.78,-0.16,0.40
-30.15,-7.21,-0.74,-0.53,-0.63,1.23
-27.71,-7.92,-1.65,-0.32,-1.08,1.88
-25.57,-7.80,-2.32,-0.25,-1.33,2.46
-23.85,-7.50,-2.21,-0.24,-1.50,2.98
-22.21,-7.43,-2.15,-0.21,-1.67,3.46
-20.32,-7.47,-2.13,-0.16,-1.85,3.89
-18.21,-7.48,-2.18,-0.08,-2.08,4.25
-16.09,-7.38,-2.33,-0.00,-2.31,4.56
-14.05,-7.20,-2.60,0.09,-2.51,4.82
-12.19,-7.12,-2.95,0.17,-2.64,5.05
-10.41,-7.23,-3.24,0.25,-2.66,5.27
-8.64,-7.53,-3.42,0.32,-2.62,5.48
-6.89,-7.90,-3.92,0.36,-2.51,5.71
-5.29,-8.17,-4.28,0.29,-2.23,5.88
-4.01,-8.37,-3.94,0.17,-1.92,6.02
-3.05,-8.61,-3.37,0.06,-1.71,6.12
-2.32,-8.94,-2.81,0.00,-1.63,6.18
-1.61,-9.35,-2.38,-0.01,-1.67,6.22
-0.71,-9.82,-2.29,0.02,-1.79,6.23
0.20,-10.15,-2.15,0.07,-1.91,6.21
0.94,-10.32,-1.51,0.14,-2.05,6.21
1.58,-10.40,-0.75,0.32,-2.30,6.23
2.30,-10.38,-0.86,0.58,-2.56,6.27
3.09,-10.17,-1.10,0.82,-2.60,6.34
3.80,-9.97,-1.34,1.01,-2.47,6.46
4.73,-10.04,-0.72,1.16,-2.20,6.54
5.66,-10.43,0.86,1.42,-1.86,6.60
6.22,-10.78,2.18,1.76,-1.62,6.57
6.51,-10.85,3.22,2.12,-1.56,6.50
7.04,-10.63,3.83,2.46,-1.76,6.41
8.66,-10.07,4.03,2.76,-2.27,6.28
12.77,-9.23,2.97,2.95,-2.77,5.94
18.35,-6.81,1.23,2.96,-2.22,5.22
21.59,-2.31,2.46,2.75,-1.20,4.68
26.68,0.84,3.49,2.62,-0.50,4.18
29.22,2.89,1.48,2.31,0.41,3.47
31.57,4.19,1.94,1.67,1.36,2.67
34.29,4.91,4.04,1.16,1.81,1.58
35.32,5.50,4.77,0.88,1.83,0.12
34.15,6.26,4.51,0.70,1.57,-1.43
31.81,6.96,3.35,0.51,1.16,-2.95
28.91,7.67,1.92,0.21,0.83,-4.42
24.48,9.34,2.09,-0.05,0.43,-5.69
20.77,10.54,2.56,-0.27,0.02,-6.30
16.37,12.00,4.61,-0.14,-0.62,-6.86
11.48,13.54,4.39,0.13,-1.32,-6.69
9.18,13.72,3.28,0.07,-1.76,-5.72
8.75,12.04,2.56,-0.28,-1.95,-4.48
9.13,9.37,2.03,-0.69,-2.01,-3.47
8.86,6.88,1.40,-1.12,-1.94,-2.95
7.65,4.99,1.41,-1.53,-1.79,-2.88
6.08,3.66,2.02,-1.75,-1.71,-3.09
4.99,2.78,1.94,-1.88,-1.68,-3.44
4.52,2.34,1.52,-2.04,-1.58,-3.77
4.46,2.23,0.99,-2.23,-1.45,-4.01
4.53,2.26,0.34,-2.39,-1.26,-4.11
4.61,2.03,-0.29,-2.57,-0.96,-4.14
4.64,1.42,-0.41,-2.78,-0.53,-4.18
4.65,0.59,-0.43,-2.98,-0.03,-4.28
4.45,-0.24,-0.51,-3.17,0.52,-4.46
3.85,-0.97,-0.64,-3.34,1.05,-4.67
3.02,-1.49,-0.90,-3.50,1.55,-4.87
2.23,-1.81,-0.96,-3.66,2.01,-5.03
1.56,-2.05,-1.21,-3.78,2.44,-5.14
1.07,-2.44,-1.68,-3.88,2.85,-5.19
0.59,-2.98,-2.34,-3.98,3.23,-5.23
-0.13,-3.47,-3.00,-4.11,3.54,-5.27
-1.13,-3.91,-3.27,-4.25,3.81,-5.31
-2.28,-4.40,-2.70,-4.34,4.07,-5.31
-3.44,-4.87,-1.65,-4.29,4.27,-5.25
-4.41,-5.34,-0.78,-4.08,4.36,-5.12
-5.31,-5.91,-0.29,-3.77,4.37,-5.00
-6.35,-6.26,0.05,-3.41,4.29,-4.94
-7.54,-6.19,-0.45,-3.04,4.18,-4.85
-8.56,-6.32,-1.13,-2.69,4.06,-4.71
-9.62,-6.98,-1.08,-2.36,3.94,-4.54
-10.90,-7.78,-0.55,-1.96,3.70,-4.23
-12.57,-7.58,0.27,-1.47,3.19,-3.46
-14.48,-8.36,-0.82,-1.07,2.66,-2.21
-16.68,-9.93,-2.08,-0.95,2.48,-0.80
-18.71,-10.79,-2.43,-0.93,2.31,0.58
-20.50,-10.36,-3.24,-0.84,2.13,1.82
-22.45,-9.06,-3.84,-0.66,2.08,2.94
-24.05,-7.79,-3.91,-0.41,2.06,3.84
-21.36,-11.34,-2.84,0.06,1.71,3.37
-25.09,-9.03,-1.60,0.35,0.87,1.11
-28.55,-5.20,-1.17,0.87,-0.38,0.40
-25.59,-4.03,-3.64,1.18,-1.03,0.66
-21.88,-4.18,-5.31,1.16,-0.96,0.89
-20.85,-4.55,-7.41,0.72,-0.71,0.98
-21.79,-3.90,-7.29,0.11,-0.20,1.03
-23.08,-3.28,-4.07,-0.22,0.02,1.43
-22.12,-3.94,-2.65,-0.18,-0.41,1.91
-20.25,-4.53,-3.31,-0.09,-0.94,2.20
-18.49,-4.39,-4.34,-0.10,-1.28,2.40
-17.33,-4.01,-4.39,-0.15,-1.50,2.68
-16.21,-4.30,-4.80,-0.22,-1.69,3.07
-14.94,-4.85,-4.91,-0.34,-1.75,3.35
-14.03,-5.25,-4.27,-0.42,-1.90,3.63
-12.70,-5.71,-4.18,-0.45,-2.16,3.88
