MPU_Index,aX,aY,aZ,gX,gY,gZ0,-5.24,0.47,-3.97,0.24,2.45,-4.371,-2.74,0.08,-3.38,-4.37,-2.55,0.540,-4.91,-2.32,-4.11,0.70,2.60,-4.371,-3.06,2.93,-5.63,-4.37,-2.43,0.760,-8.99,-4.31,-4.57,0.75,2.31,-4.371,-3.41,4.67,-10.44,-4.37,-2.19,0.690,-14.17,-3.88,-5.57,0.58,2.23,-4.371,-3.62,5.76,-15.50,-4.37,-2.29,0.410,-17.71,-3.17,-5.16,0.25,2.31,-4.371,-3.59,6.29,-17.82,-4.30,-2.09,0.230,-18.06,-3.66,-3.11,0.33,1.77,-3.561,-3.86,7.24,-18.20,-3.00,-1.20,0.570,-17.94,-5.23,-3.47,0.86,0.72,-2.351,-4.78,8.54,-19.01,-1.85,-0.13,1.180,-19.26,-6.25,-6.89,1.43,-0.09,-1.151,-7.72,9.82,-19.61,-0.63,0.33,1.580,-19.61,-8.20,-10.32,1.67,-0.38,-0.021,-10.78,11.16,-19.61,0.50,0.58,1.730,-19.61,-8.86,-14.21,1.67,-0.45,1.111,-12.72,11.23,-19.61,1.62,0.52,1.590,-18.75,-8.94,-15.60,1.36,-0.31,2.201,-13.23,10.35,-17.66,2.56,0.32,1.030,-16.10,-8.51,-15.37,0.46,-0.07,2.861,-11.86,8.06,-15.07,2.85,0.00,-0.080,-13.48,-8.29,-13.77,-0.74,0.20,2.711,-10.41,6.46,-13.18,2.40,-0.17,-1.200,-11.99,-6.95,-11.61,-1.66,0.31,2.221,-8.11,5.78,-12.02,2.15,-0.28,-1.820,-11.40,-4.95,-8.87,-1.97,0.29,2.301,-6.90,5.23,-11.48,2.45,-0.07,-1.910,-10.86,-3.96,-7.07,-2.00,-0.09,2.681,-5.66,4.54,-10.47,2.88,0.38,-1.930,-9.82,-3.12,-5.84,-2.02,-0.53,3.121,-4.41,3.54,-9.64,3.29,0.83,-1.900,-9.56,-2.20,-4.19,-1.86,-0.99,3.531,-2.63,3.17,-9.52,3.80,1.32,-1.600,-9.79,-1.11,-2.44,-1.50,-1.51,4.161,-1.46,2.44,-8.96,4.37,1.90,-1.210,-8.83,-0.20,-2.01,-1.09,-2.02,4.371,-0.96,1.44,-7.31,4.37,2.32,-0.880,-7.55,0.23,-1.28,-0.84,-2.41,4.371,-0.41,0.78,-6.13,4.37,2.73,-0.680,-7.26,0.98,-1.01,-0.64,-2.81,4.371,-0.58,-0.09,-5.13,4.37,3.15,-0.460,-6.15,1.29,-1.87,-0.45,-3.19,4.371,-1.19,-0.62,-3.71,4.37,3.44,-0.340,-4.97,0.91,-2.86,-0.39,-3.38,4.371,-1.52,-0.43,-2.41,4.37,3.53,-0.270,-3.94,0.69,-3.60,-0.25,-3.36,4.371,-1.57,-0.25,-1.87,4.37,3.39,-0.060,-3.83,0.82,-3.99,0.01,-3.08,4.371,-1.21,-0.57,-1.56,4.37,2.92,0.200,-2.92,1.16,-5.56,0.14,-2.30,4.371,-0.96,-2.05,1.07,4.37,1.69,0.100,0.62,1.42,-5.74,-0.18,-0.81,4.371,-0.37,-2.60,4.00,4.37,0.45,-0.230,3.98,1.86,-1.33,-0.24,-0.23,4.371,1.11,-3.41,6.94,4.37,0.38,-0.000,6.62,3.49,1.63,0.13,-0.45,4.371,2.04,-4.43,8.68,4.37,0.90,0.500,7.48,4.50,2.84,0.75,-1.23,4.371,0.94,-4.67,9.39,4.37,1.82,1.060,9.10,4.43,0.51,1.12,-2.01,4.371,0.44,-5.60,12.54,4.37,2.25,1.180,13.29,4.57,-1.81,1.02,-1.95,4.371,1.00,-7.38,18.32,4.37,1.70,0.860,19.61,5.18,-3.78,0.51,-0.87,4.181,1.59,-9.86,19.61,3.20,0.18,0.340,19.61,6.60,-4.46,0.15,0.73,2.121,-0.86,-13.30,19.61,0.90,-1.36,0.060,19.61,9.19,-5.52,-0.14,1.87,-0.181,-3.96,-14.48,19.61,-1.17,-1.99,-0.250,19.61,11.96,-5.93,-0.44,2.01,-1.781,-5.48,-14.41,19.61,-2.29,-1.74,-0.540,18.68,13.44,-5.42,-0.70,1.48,-2.511,-4.51,-14.02,16.87,-2.74,-1.17,-0.740,15.80,12.55,-3.67,-0.74,0.96,-2.921,-1.96,-13.00,15.22,-3.26,-0.73,-0.550,13.07,11.83,-1.92,-0.30,0.64,-3.411,-0.06,-11.96,12.55,-3.62,-0.54,-0.040,10.80,10.53,-0.18,0.29,0.60,-3.651,1.18,-10.42,10.34,-3.83,-0.55,0.590,9.06,9.44,0.14,0.75,0.60,-3.861,1.78,-9.18,9.22,-4.02,-0.53,0.820,8.02,8.20,0.40,0.78,0.54,-4.071,1.53,-8.23,7.98,-4.23,-0.40,0.670,6.55,7.62,0.81,0.50,0.30,-4.211,1.03,-7.27,6.73,-4.35,0.03,0.260,5.67,6.39,0.84,0.04,-0.21,-4.371,1.49,-5.98,5.55,-4.37,0.45,-0.110,4.36,5.67,0.94,-0.18,-0.52,-4.361,1.73,-5.24,4.52,-4.37,0.66,-0.190,3.37,5.27,0.24,-0.23,-0.67,-4.311,0.91,-5.19,3.38,-4.37,0.79,-0.280,2.46,4.62,-0.74,-0.35,-0.73,-4.371,0.28,-5.05,2.66,-4.37,0.70,-0.420,1.46,3.63,-1.98,-0.49,-0.48,-4.371,0.00,-4.23,1.47,-4.37,0.35,-0.540,-0.10,2.99,-4.25,-0.63,0.14,-4.371,-0.77,-3.57,0.57,-4.37,-0.67,-0.700,-1.46,1.06,-4.96,-0.73,1.32,-4.371,-0.36,-0.84,-1.44,-4.37,-1.85,-0.610,-3.60,-1.12,-3.53,-0.45,2.34,-4.371,-0.36,0.91,-3.12,-4.37,-2.55,-0.280,-6.22,-3.46,-1.41,-0.20,2.54,-4.371,-0.62,2.29,-6.06,-4.37,-2.38,-0.190,-8.82,-2.81,-2.29,-0.28,2.30,-4.371,-0.88,1.44,-8.06,-4.37,-2.28,-0.420,-10.40,-1.19,-2.84,-0.56,2.39,-4.371,-0.23,1.11,-9.08,-4.37,-2.50,-0.600,-11.46,0.70,-2.05,-0.55,2.71,-4.371,0.79,0.02,-9.87,-4.37,-2.88,-0.380,-12.57,3.22,-0.63,-0.07,2.93,-4.371,-0.47,-0.54,-12.21,-4.37,-2.61,0.260,-13.06,3.40,0.21,0.51,2.12,-4.371,-0.59,0.25,-11.80,-4.11,-1.50,0.840,-10.67,1.40,0.04,1.18,0.95,-3.531,-1.42,1.45,-9.40,-3.23,-0.42,1.430,-8.13,-1.20,-2.40,1.60,0.25,-2.901,-1.56,2.94,-7.56,-2.80,-0.11,1.700,-7.83,-3.47,-3.38,1.80,0.20,-2.621,-1.98,5.02,-9.81,-2.64,-0.08,1.850,-11.86,-5.61,-4.45,1.93,0.10,-2.501,-4.07,7.58,-15.59,-2.48,-0.00,1.870,-18.69,-8.63,-7.97,1.74,0.14,-2.251,-7.42,11.54,-19.61,-1.95,-0.28,1.530,-19.61,-9.96,-12.24,1.27,0.61,-1.221,-10.60,14.59,-19.61,-0.47,-0.63,1.000,-19.61,-11.52,-12.14,0.73,0.52,0.451,-11.74,15.76,-19.61,1.27,-0.13,0.590,-19.61,-12.39,-12.99,0.39,0.00,2.101,-11.50,15.01,-19.61,2.61,0.13,0.220,-19.61,-13.20,-13.88,-0.11,0.05,2.971,-11.05,12.61,-17.99,3.05,-0.17,-0.410,-15.96,-11.43,-13.86,-0.89,0.51,3.121,-9.88,9.82,-14.50,3.07,-0.63,-1.190,-13.15,-8.90,-10.78,-1.59,0.74,3.121,-7.22,7.98,-11.98,3.18,-0.63,-1.750,-10.51,-6.30,-7.22,-1.99,0.63,3.331,-3.63,5.64,-9.40,3.45,-0.46,-1.940,-8.90,-4.07,-2.60,-1.90,0.30,3.611,-0.98,3.97,-8.63,3.78,0.08,-1.590,-8.38,-2.25,-0.78,-1.39,-0.30,4.041,0.36,2.82,-7.62,4.24,0.60,-1.060,-7.33,-1.39,-0.43,-0.90,-0.59,4.371,1.48,1.99,-6.46,4.37,0.65,-0.660,-6.44,-0.53,-0.37,-0.66,-0.47,4.371,1.30,0.34,-5.48,4.37,0.52,-0.600,-6.17,0.67,-0.17,-0.74,-0.48,4.371,0.40,-0.59,-5.45,4.37,0.80,-0.750,-6.23,1.64,-0.38,-0.94,-1.02,4.371,-0.41,-1.46,-5.61,4.37,1.35,-0.950,-6.24,2.13,-0.97,-1.08,-1.51,4.371,-0.34,-1.42,-4.67,4.37,1.83,-0.960,-5.27,2.30,-1.35,-0.93,-1.86,4.371,0.61,-1.99,-3.21,4.37,1.97,-0.710,-4.01,2.88,-1.30,-0.62,-1.77,4.371,0.69,-3.16,-2.12,4.37,1.72,-0.340,-2.88,3.31,-2.20,-0.25,-1.43,4.371,-0.40,-3.75,-1.14,4.37,1.38,-0.030,-2.09,3.14,-3.16,-0.00,-1.11,4.371,-1.53,-3.46,-0.63,4.37,1.10,0.140,-1.46,3.09,-3.94,0.10,-0.88,4.371,-1.99,-2.97,0.09,4.37,0.89,0.180,-0.52,3.06,-3.64,0.11,-0.66,4.371,-1.32,-2.57,1.44,4.37,0.71,0.210,0.93,3.12,-2.58,0.16,-0.59,4.371,-0.97,-2.50,3.30,4.37,0.76,0.280,3.29,2.74,-1.22,0.29,-0.77,4.371,0.05,-2.51,6.10,4.37,1.03,0.490,5.73,2.92,0.16,0.58,-1.04,4.371,1.49,-2.45,8.71,4.37,1.27,0.840,8.58,3.15,1.30,0.97,-1.17,4.371,2.53,-3.22,13.29,4.37,1.27,1.200,15.35,3.11,1.00,1.24,-1.02,4.371,2.33,-6.77,19.61,4.37,0.94,1.370,19.61,4.81,-0.77,1.34,-0.56,4.371,0.50,-11.15,19.61,3.92,0.43,1.350,19.61,7.64,-2.71,1.24,-0.16,2.811,-2.79,-13.59,19.61,1.61,0.27,1.170,19.61,9.90,-5.66,0.97,-0.21,0.761,-6.49,-12.96,19.61,0.17,0.35,0.790,19.61,11.03,-8.70,0.41,-0.47,-0.251,-8.24,-12.95,19.61,-0.68,0.58,0.170,18.55,11.52,-10.31,-0.07,-0.44,-0.931,-7.79,-12.78,17.57,-1.33,0.44,-0.180,16.69,10.71,-8.85,-0.22,-0.24,-1.651,-5.70,-11.71,16.35,-2.07,0.10,-0.120,15.39,9.23,-7.07,-0.03,0.23,-2.321,-3.15,-9.48,15.33,-2.70,-0.32,0.130,14.07,8.26,-4.34,0.23,0.54,-2.841,-1.57,-8.47,13.93,-3.05,-0.54,0.320,13.13,7.26,-1.97,0.33,0.51,-3.171,-0.99,-7.75,12.89,-3.46,-0.24,0.270,11.65,6.58,-0.68,0.17,0.05,-3.571,-0.26,-6.51,11.06,-3.71,0.29,0.090,9.96,6.15,-0.04,-0.01,-0.55,-3.681,-0.39,-5.97,9.86,-3.80,0.96,-0.130,8.78,5.62,-0.65,-0.27,-1.17,-3.801,-0.79,-5.69,8.71,-3.92,1.41,-0.410,-7.85,-0.97,-5.36,-0.36,1.91,-4.371,-1.62,1.78,-7.43,-4.37,-2.14,-0.450,-10.99,0.76,-1.86,-0.42,2.19,-4.371,0.43,2.43,-11.74,-4.37,-1.93,-0.220,-15.63,3.03,2.72,0.07,1.48,-4.371,1.72,2.30,-18.25,-3.39,-0.65,0.460,-19.61,5.08,5.62,0.88,-0.36,-1.851,1.01,1.61,-19.61,-0.41,1.64,1.370,-19.61,3.24,3.26,1.85,-2.64,0.841,-1.74,1.71,-19.61,1.42,3.69,2.320,-19.61,-4.32,-1.19,2.59,-4.37,1.471,-4.39,2.76,-19.61,1.06,4.37,2.500,-19.61,-4.34,-9.47,2.18,-4.37,0.811,-5.37,2.80,-19.61,0.45,3.91,1.770,-19.61,-5.77,-12.23,1.45,-2.81,0.181,-5.50,4.22,-19.61,-0.27,1.81,1.130,-19.61,-6.02,-13.53,0.75,-0.49,-0.551,-5.87,4.53,-19.61,-0.74,-0.51,0.410,-19.61,-3.59,-10.94,-0.00,1.34,-0.571,-6.04,3.70,-19.61,-0.32,-1.61,-0.330,-19.61,-1.72,-6.82,-0.68,1.63,0.111,-5.49,3.16,-19.61,0.55,-1.24,-0.830,-19.61,-0.73,-4.46,-0.99,0.88,1.121,-3.57,2.74,-19.09,1.66,-0.37,-0.900,-17.20,-0.06,-2.21,-0.84,0.01,2.281,-1.43,2.28,-15.68,2.78,0.43,-0.610,-13.75,0.04,-1.60,-0.47,-0.55,3.261,-0.18,1.30,-11.99,3.56,0.69,-0.200,-10.73,0.23,-2.11,-0.07,-0.47,3.871,0.82,0.28,-9.01,4.04,0.34,0.120,-8.48,1.05,-1.80,0.10,0.04,4.271,1.63,-0.81,-6.89,4.37,-0.26,0.170,-7.10,2.03,-0.93,0.09,0.67,4.371,1.70,-1.59,-6.25,4.37,-0.77,0.130,-6.49,2.38,-0.13,-0.00,0.87,4.371,0.50,-2.27,-5.34,4.37,-0.63,0.000,-5.56,2.52,-0.46,-0.13,0.55,4.371,0.22,-2.46,-4.37,4.37,-0.26,-0.090,-4.61,2.66,-0.20,-0.18,0.17,4.371,0.62,-2.72,-3.62,4.37,0.13,-0.090,-4.04,3.40,0.09,-0.12,-0.22,4.371,0.63,-3.66,-3.04,4.37,0.42,-0.000,-3.39,4.21,-0.12,0.02,-0.40,4.371,0.89,-3.96,-2.18,4.37,0.62,0.250,-2.72,4.25,-0.68,0.35,-0.54,4.371,0.23,-4.27,-1.31,4.37,0.61,0.560,-1.64,4.17,-2.21,0.59,-0.39,4.371,-0.98,-4.14,-0.25,4.37,0.40,0.700,-1.02,3.80,-3.11,0.62,-0.22,4.371,-1.92,-3.51,0.53,4.37,0.24,0.600,0.26,3.08,-4.83,0.41,0.04,4.371,-2.45,-2.93,2.11,4.37,-0.15,0.340,2.12,2.23,-4.98,0.13,0.51,4.371,-2.06,-2.54,4.03,4.37,-0.62,0.060,3.91,1.83,-4.14,-0.15,0.91,4.371,-1.21,-2.03,6.07,4.37,-1.02,-0.210,7.01,1.98,-2.56,-0.39,1.28,4.371,0.35,-2.03,9.67,4.37,-1.26,-0.310,10.65,2.04,0.09,-0.32,1.32,4.371,1.41,-1.82,13.28,4.37,-1.16,-0.120,14.25,2.93,0.69,-0.15,1.19,4.371,1.53,-1.66,17.93,4.37,-1.17,-0.340,19.61,3.33,-0.20,-0.88,1.24,4.371,0.45,-5.50,19.61,4.37,-1.08,-1.260,19.61,3.31,-0.81,-1.85,0.96,4.371,-0.77,-10.41,19.61,3.31,-0.66,-2.160,19.61,6.80,-1.39,-2.40,0.48,2.121,-1.57,-12.68,19.61,1.06,-0.17,-2.170,19.61,9.72,-2.12,-1.84,0.01,0.241,-2.00,-12.92,19.61,-0.51,0.16,-1.260,19.61,10.07,-3.88,-0.80,-0.04,-1.111,-2.31,-12.24,19.61,-1.68,-0.10,-0.350,19.61,10.15,-5.37,-0.10,0.47,-2.111,-2.21,-11.59,18.94,-2.55,-0.76,0.050,17.51,9.58,-4.41,0.08,1.10,-2.861,-1.51,-10.43,17.36,-3.34,-1.18,0.140,15.92,7.67,-2.32,0.23,1.32,-3.731,0.41,-8.72,15.77,-4.25,-1.28,0.480,14.11,6.08,0.11,0.84,1.33,-4.371,1.98,-7.08,14.05,-4.37,-1.23,1.250,11.79,5.45,1.02,1.62,1.19,-4.371,1.64,-5.73,11.89,-4.37,-0.95,1.790,9.48,4.95,0.82,1.82,0.77,-4.371,0.64,-4.45,9.33,-4.37,-0.37,1.640,7.14,4.59,0.14,1.38,0.12,-4.371,0.14,-3.69,7.24,-4.37,0.25,1.030,5.51,4.47,-0.52,0.71,-0.43,-4.371,0.26,-3.72,5.83,-4.37,0.65,0.420,4.72,4.35,-0.64,0.22,-0.64,-4.371,1.10,-4.00,4.87,-4.37,0.70,0.110,3.31,4.40,-0.41,0.09,-0.60,-4.371,0.89,-3.90,3.45,-4.37,0.58,0.120,2.22,4.04,-1.39,0.17,-0.41,-4.371,0.34,-3.84,2.24,-4.37,0.36,0.230,1.13,3.79,-1.46,0.31,-0.24,-4.371,0.13,-3.91,1.20,-4.37,0.25,0.380,-0.06,3.60,-1.99,0.44,-0.13,-4.371,-0.47,-3.42,-0.04,-4.37,0.16,0.470,-0.85,2.49,-2.05,0.53,-0.09,-4.371,-0.42,-2.53,-0.53,-4.37,0.16,0.570,-1.63,1.14,-2.17,0.59,-0.09,-4.371,-0.46,-1.37,-1.86,-4.37,0.18,0.550,-3.62,-0.95,-1.38,0.46,-0.25,-4.371,-1.12,0.76,-4.11,-4.37,0.41,0.270,-6.24,-2.32,-3.27,-0.06,-0.43,-4.371,-2.21,1.58,-6.74,-4.37,0.36,-0.550,-9.04,-1.63,-5.01,-1.13,-0.05,-4.371,-1.31,0.80,-10.19,-4.37,-0.45,-1.710,-14.39,0.81,-5.62,-2.26,1.18,-4.371,-0.53,0.19,-16.74,-4.37,-1.81,-2.480,-19.61,1.85,-2.46,-2.51,2.17,-4.371,0.30,-0.33,-19.61,-4.37,-2.23,-2.170,-19.61,2.87,0.55,-1.68,2.08,-3.881,1.30,0.15,-19.61,-3.26,-1.70,-0.930,-19.61,3.02,2.62,-0.16,1.24,-2.471,0.36,0.84,-19.61,-1.69,-0.50,0.520,-19.61,2.46,1.55,0.95,-0.23,-0.721,-1.51,2.46,-19.61,0.07,1.02,1.320,-19.61,-0.02,-1.92,1.64,-1.44,0.891,-3.86,3.71,-19.61,1.45,1.82,1.920,-19.61,-1.65,-7.67,2.03,-1.67,2.091,-6.50,4.12,-19.61,2.48,1.55,2.020,-19.61,-2.96,-11.09,1.80,-1.06,2.791,-7.44,1.56,-19.61,2.57,0.66,1.420,-19.61,-1.93,-10.70,0.88,-0.16,2.661,-6.00,1.90,-19.61,2.77,0.06,0.520,-16.79,-0.83,-8.51,0.10,0.35,2.801,-3.96,-0.60,-15.04,2.70,-0.58,-0.280,-13.16,0.91,-5.08,-0.67,0.88,2.781,-1.25,-0.93,-11.70,2.83,-0.87,-0.700,-10.10,1.72,-1.41,-0.70,0.92,2.941,0.75,-1.77,-9.53,3.00,-0.69,-0.430,-9.22,3.00,0.80,-0.25,0.56,3.201,1.30,-2.53,-8.93,3.36,-0.23,0.050,-8.43,3.43,1.11,0.21,0.07,3.611,1.30,-2.53,-7.64,3.76,0.18,0.470,-7.40,3.40,0.02,0.56,-0.15,4.021,0.92,-2.63,-6.09,4.18,0.27,0.700,-5.76,3.55,-0.66,0.66,-0.15,4.371,0.75,-3.20,-4.33,4.37,0.23,0.690,-4.23,3.95,-0.87,0.58,-0.11,4.371,0.32,-3.56,-3.09,4.37,0.22,0.560,-3.18,4.17,-1.46,0.40,-0.13,4.371,-0.28,-3.86,-2.00,4.37,0.24,0.380,-2.37,4.35,-1.82,0.25,-0.14,4.371,-0.60,-4.32,-1.09,4.37,0.25,0.260,-1.53,4.38,-2.82,0.15,-0.12,4.371,-1.49,-4.62,-0.20,4.37,0.10,0.180,-0.53,4.07,-4.27,0.07,0.17,4.371,-2.23,-4.59,0.42,4.37,-0.30,0.120,-0.11,3.51,-5.14,0.01,0.61,4.371,-3.02,-3.88,0.60,4.37,-0.65,0.060,0.43,3.14,-5.27,-0.03,0.84,4.371,-3.08,-3.40,1.53,4.23,-0.86,0.010,1.51,2.71,-4.85,-0.09,1.06,4.181,-2.47,-2.75,2.38,4.06,-1.06,-0.060,2.49,2.26,-4.33,-0.24,1.21,4.031,-1.90,-2.23,3.70,3.97,-1.28,-0.350,4.75,1.88,-4.07,-0.64,1.60,3.991,-0.18,-1.99,7.09,3.93,-1.82,-0.730,8.37,1.87,-2.26,-0.96,2.21,3.891,2.50,-3.06,11.81,3.71,-2.57,-0.990,14.03,2.84,0.72,-1.16,3.11,3.451,5.66,-5.43,16.98,3.08,-3.52,-1.150,18.06,5.33,3.72,-1.36,3.93,2.711,6.63,-8.78,19.61,2.27,-4.06,-1.310,19.61,8.62,5.84,-1.40,4.07,1.911,5.87,-11.44,19.61,1.56,-3.77,-1.290,19.61,11.32,6.34,-1.28,3.39,1.341,4.52,-13.21,19.61,1.10,-2.82,-1.060,19.61,12.78,6.33,-0.88,2.23,0.931,3.38,-13.90,19.61,0.67,-1.42,-0.420,19.18,13.58,5.37,0.01,0.72,0.521,2.22,-14.96,19.05,0.23,0.06,0.510,18.93,13.36,3.22,0.86,-0.48,-0.101,2.43,-15.58,19.02,-0.76,0.88,1.090,18.38,11.83,1.85,1.23,-0.85,-1.361,3.73,-13.53,17.94,-2.06,0.88,1.330,16.91,10.51,2.16,1.46,-0.68,-2.491,4.30,-11.86,16.84,-2.97,0.67,1.590,15.94,9.71,3.28,1.72,-0.59,-3.281,4.43,-10.91,15.93,-3.73,0.75,1.780,14.49,9.04,3.77,1.83,-0.82,-3.961,3.93,-9.46,14.25,-4.27,1.13,1.740,12.23,8.16,3.16,1.58,-1.32,-4.331,2.75,-7.83,11.76,-4.37,1.67,1.310,9.95,7.28,1.80,1.06,-1.81,-4.361,2.34,-6.50,9.86,-4.37,2.03,0.830,7.85,6.18,1.44,0.71,-2.09,-4.271,2.10,-5.45,7.81,-4.30,2.28,0.650,5.92,5.06,0.62,0.66,-2.26,-4.211,1.68,-4.48,5.80,-4.28,2.35,0.680,3.78,3.86,-0.15,0.74,-2.28,-4.211,0.68,-3.36,3.31,-4.26,2.40,0.740,1.45,3.47,-1.22,0.73,-2.38,-4.111,-0.28,-2.79,1.14,-4.05,2.55,0.670,-0.20,3.12,-1.44,0.62,-2.57,-3.871,-0.47,-2.49,-0.13,-3.84,2.76,0.540,-1.18,2.71,-1.53,0.49,-2.77,-3.681,-0.32,-2.25,-0.85,-3.68,2.93,0.410,-19.61,-4.34,-2.73,0.13,-0.33,0.911,-1.54,5.71,-19.61,1.30,0.50,-0.180,-19.10,-3.56,-3.05,-0.59,-0.43,1.651,-0.45,3.91,-18.07,1.86,0.43,-0.860,-16.23,-2.37,-2.02,-1.16,-0.12,2.071,2.57,2.20,-15.36,2.17,-0.18,-1.200,-14.15,-0.96,0.01,-1.25,0.67,2.281,3.81,0.10,-13.51,2.26,-1.00,-1.070,-12.77,0.58,0.51,-0.97,1.43,2.291,3.57,-0.95,-12.41,2.28,-1.71,-0.720,-11.95,1.16,0.62,-0.61,2.04,2.371,3.01,-0.87,-11.54,2.46,-2.14,-0.400,-11.14,1.92,1.03,-0.37,2.28,2.721,2.36,-0.89,-10.45,2.94,-2.19,-0.270,-10.07,2.21,1.08,-0.38,2.18,3.251,2.01,-1.31,-9.61,3.46,-1.96,-0.370,-9.82,2.44,1.36,-0.50,1.84,3.711,1.43,-1.74,-9.32,3.87,-1.55,-0.480,-9.40,2.52,1.20,-0.58,1.41,4.051,1.93,-2.46,-8.74,4.09,-1.19,-0.500,-8.77,3.15,0.65,-0.56,1.24,4.201,2.62,-3.21,-7.66,4.23,-1.21,-0.470,-7.40,3.47,0.64,-0.55,1.38,4.311,2.38,-3.43,-6.01,4.31,-1.38,-0.490,-5.74,3.37,0.42,-0.56,1.53,4.361,2.37,-3.17,-4.30,4.36,-1.50,-0.470,-4.27,3.37,0.80,-0.55,1.61,4.371,2.00,-3.41,-2.89,4.37,-1.50,-0.460,-2.92,3.52,0.79,-0.53,1.47,4.371,1.15,-3.66,-1.82,4.37,-1.22,-0.400,-1.87,3.62,0.21,-0.42,1.10,4.371,0.39,-4.02,-0.92,4.37,-0.82,-0.310,-1.01,4.14,-0.72,-0.39,0.77,4.371,0.69,-4.21,0.11,4.37,-0.63,-0.340,-0.26,4.80,-0.62,-0.45,0.70,4.371,0.99,-4.28,0.73,4.37,-0.58,-0.370,0.65,5.03,-0.02,-0.44,0.59,4.371,1.11,-4.67,2.48,4.37,-0.40,-0.340,2.91,4.98,0.40,-0.40,0.37,4.371,1.62,-5.13,5.32,4.37,-0.17,-0.290,5.97,5.20,0.74,-0.34,0.25,4.371,2.48,-6.02,7.99,4.37,-0.20,-0.230,8.40,5.89,0.69,-0.29,0.42,4.371,3.11,-7.02,10.75,4.37,-0.54,-0.210,11.78,6.72,0.67,-0.29,0.92,4.271,3.77,-8.85,14.44,3.92,-1.19,-0.230,16.01,7.91,0.65,-0.33,1.68,3.461,3.68,-11.92,18.92,2.73,-1.99,-0.250,19.61,9.42,0.35,-0.31,2.41,1.931,2.58,-14.38,19.61,0.97,-2.59,-0.240,19.61,10.97,0.43,-0.26,2.74,0.111,1.04,-14.84,19.61,-0.73,-2.63,-0.180,19.61,12.14,0.07,-0.20,2.50,-1.321,-0.24,-14.02,19.11,-1.78,-2.18,-0.130,16.91,12.94,-0.08,-0.13,1.89,-1.981,-0.62,-13.21,15.68,-2.12,-1.46,-0.040,13.82,12.95,0.56,0.05,1.09,-2.091,0.30,-12.59,12.99,-2.19,-0.57,0.230,11.74,12.24,1.39,0.38,0.20,-2.181,1.12,-12.40,11.43,-2.33,0.24,0.500,10.70,11.38,1.85,0.56,-0.51,-2.441,2.25,-11.98,10.68,-2.75,0.86,0.620,9.58,10.35,2.53,0.68,-0.99,-2.931,3.25,-10.79,9.12,-3.20,1.25,0.740,7.70,9.47,2.73,0.80,-1.34,-3.281,3.26,-9.31,7.29,-3.43,1.61,0.820,5.85,8.49,2.34,0.82,-1.67,-3.391,2.83,-7.87,5.63,-3.44,1.92,0.790,4.31,7.32,1.76,0.77,-1.99,-3.331,2.10,-6.55,4.28,-3.33,2.19,0.700,2.96,6.35,0.79,0.61,-2.20,-3.181,1.73,-5.74,2.91,-3.16,2.33,0.490,1.66,5.66,0.11,0.36,-2.26,-3.041,1.36,-5.32,1.49,-3.06,2.33,0.220,0.17,5.14,-0.47,0.08,-2.23,-2.951,1.03,-4.77,-0.06,-3.00,2.26,-0.040,-0.83,4.39,-0.85,-0.16,-2.11,-2.951,0.96,-4.53,-0.96,-3.08,2.09,-0.250,-1.68,4.01,-0.75,-0.35,-1.91,-3.111,1.25,-4.41,-1.64,-3.28,1.86,-0.410,-2.22,3.77,-0.36,-0.47,-1.69,-3.341,1.63,-4.46,-1.90,-3.55,1.68,-0.480,-2.55,3.58,0.48,-0.43,-1.58,-3.611,2.14,-4.18,-2.15,-3.80,1.64,-0.270,-3.17,3.10,1.76,-0.11,-1.65,-3.921,2.87,-3.65,-3.46,-4.16,1.90,0.040,-4.94,2.93,3.25,0.13,-2.12,-4.251,2.70,-3.07,-5.59,-4.27,2.53,0.120,-6.94,3.81,3.20,0.10,-2.80,-3.991,3.37,-2.80,-6.55,-3.82,3.15,0.060,-7.50,3.66,3.02,0.04,-3.21,-3.521,4.85,-2.63,-7.11,-3.37,3.32,0.050,-8.48,3.64,3.45,0.08,-3.07,-3.071,6.68,-2.73,-8.94,-2.95,2.83,0.090,-10.84,4.00,2.80,0.06,-2.24,-2.701,6.67,-3.66,-12.31,-2.56,1.79,-0.030,-13.30,4.34,2.71,-0.21,-1.25,-2.381,5.90,-4.59,-13.87,-2.45,0.91,-0.310,-13.81,4.07,3.10,-0.35,-0.48,-2.511,6.83,-4.84,-13.61,-2.73,0.20,-0.210,-13.94,3.93,5.12,0.03,0.16,-2.811,7.78,-3.77,-14.79,-2.90,-0.25,0.340,-15.66,3.70,6.18,0.60,0.29,-2.741,6.21,-2.28,-16.95,-2.58,-0.04,0.830,-18.17,3.25,5.20,0.99,-0.13,-2.171,4.99,-0.50,-19.61,-1.77,0.50,1.110,-19.61,2.17,4.25,1.21,-0.66,-1.161,4.63,0.96,-19.61,-0.64,0.89,1.290,-19.61,1.35,2.73,1.31,-0.81,0.031,4.11,1.14,-19.61,0.54,0.81,1.310,-19.61,0.99,1.34,1.24,-0.53,1.111,3.78,0.71,-19.61,1.44,0.37,1.210,-19.61,0.57,0.66,1.12,0.01,1.751,3.08,-0.30,-18.47,1.84,-0.23,1.070,-16.38,0.87,-0.47,0.94,0.67,1.951,2.49,-1.08,-15.08,1.87,-0.91,0.900,-13.43,1.06,-0.17,0.80,1.22,1.891,1.84,-1.38,-12.50,1.83,-1.30,0.760,-11.20,1.53,-0.18,0.62,1.49,1.901,1.70,-1.49,-10.56,1.90,-1.47,0.580,-9.80,2.04,0.06,0.43,1.60,2.031,1.66,-1.92,-9.46,2.09,-1.56,0.400,-9.14,2.67,-0.12,0.27,1.69,2.241,1.72,-2.53,-8.94,2.28,-1.65,0.290,-8.75,3.31,-0.03,0.23,1.79,2.401,1.87,-3.34,-8.70,2.42,-1.80,0.310,-8.63,3.96,0.08,0.27,1.95,2.531,1.67,-3.84,-8.52,2.57,-1.91,0.360,-8.59,4.30,0.10,0.33,1.98,2.721,1.26,-3.78,-8.28,2.79,-1.84,0.420,-8.05,4.29,0.09,0.40,1.84,2.971,0.93,-3.32,-7.48,3.06,-1.68,0.490,-7.28,4.07,-0.24,0.43,1.73,3.261,0.91,-3.39,-6.54,3.38,-1.62,0.440,-6.21,4.29,-0.47,0.31,1.69,3.561,0.79,-3.84,-5.49,3.62,-1.60,0.330,-5.47,4.19,-0.81,0.25,1.67,3.751,0.14,-3.91,-4.83,3.81,-1.59,0.180,-4.62,3.70,-1.45,0.00,1.68,3.921,0.02,-3.39,-3.74,3.91,-1.58,-0.000,-3.67,3.28,-1.47,-0.13,1.65,3.971,-0.19,-3.19,-2.92,3.96,-1.54,-0.100,-2.75,3.30,-1.76,-0.22,1.61,4.031,-0.43,-3.34,-1.76,3.98,-1.52,-0.210,-1.54,3.18,-1.73,-0.34,1.60,3.971,-0.10,-3.39,-0.48,3.89,-1.53,-0.320,-0.06,3.31,-1.60,-0.45,1.67,3.871,0.69,-3.82,1.09,3.79,-1.69,-0.400,1.33,4.00,-0.88,-0.50,1.87,3.811,1.43,-4.20,2.48,3.79,-1.89,-0.430,2.52,4.66,-0.03,-0.49,2.02,3.861,1.46,-4.61,3.68,3.89,-1.93,-0.390,3.68,5.20,0.51,-0.45,1.90,4.031,0.95,-4.07,4.86,4.19,-1.62,-0.350,5.45,5.02,0.24,-0.48,1.47,4.371,1.13,-2.66,7.20,4.37,-1.24,-0.530,8.10,4.40,0.26,-0.79,1.31,4.371,2.76,-2.44,12.13,4.37,-1.38,-0.980,14.60,5.07,0.28,-1.47,1.72,4.371,3.66,-6.39,19.43,4.37,-1.93,-1.750,19.61,6.21,1.20,-2.18,2.26,4.371,4.15,-11.53,19.61,4.37,-2.34,-2.230,19.61,8.13,3.35,-2.26,2.41,3.721,4.57,-14.34,19.61,2.49,-2.21,-1.840,19.61,9.42,4.79,-1.43,2.02,1.401,3.83,-13.45,19.61,0.44,-1.61,-0.820,19.61,10.26,3.83,-0.38,1.29,-0.181,1.96,-12.21,19.61,-0.72,-0.80,0.060,18.97,10.87,2.13,0.31,0.41,-0.981,0.81,-11.98,18.18,-1.26,0.03,0.440,17.45,10.73,0.38,0.40,-0.19,-1.481,1.24,-11.80,17.24,-1.91,0.41,0.350,15.99,9.33,1.06,0.29,-0.47,-2.251,2.35,-10.10,15.41,-2.70,0.69,0.380,14.12,7.89,2.19,0.58,-0.74,-2.981,3.40,-8.69,13.99,-3.37,0.90,0.850,12.67,6.79,2.09,1.10,-0.85,-3.611,3.10,-7.51,12.59,-3.97,0.93,1.270,11.31,5.71,1.32,1.38,-0.85,-4.161,2.49,-6.36,11.34,-4.37,0.92,1.340,9.96,5.27,0.41,1.24,-0.82,-4.371,1.83,-5.70,10.01,-4.37,0.86,1.020,8.45,4.89,-0.14,0.76,-0.75,-4.371,1.55,-5.14,8.75,-4.37,0.77,0.470,7.06,4.52,-0.33,0.23,-0.66,-4.371,1.32,-4.55,7.20,-4.37,0.68,0.030,5.09,4.04,-0.16,-0.10,-0.59,-4.371,1.33,-3.94,5.14,-4.37,0.64,-0.170,3.34,3.55,-0.08,-0.18,-0.58,-4.371,1.35,-3.63,3.72,-4.37,0.63,-0.170,2.16,3.45,-0.08,-0.13,-0.56,-4.371,1.64,-3.63,2.57,-4.37,0.59,-0.060,0.94,2.92,0.83,0.06,-0.57,-4.371,2.38,-3.04,1.10,-4.37,0.74,0.220,-0.75,2.06,1.66,0.43,-0.79,-4.371,2.66,-2.10,-0.75,-4.37,0.96,0.600,-2.65,0.31,1.70,0.79,-0.99,-4.371,2.75,-1.00,-2.39,-4.37,1.18,0.920,-4.96,-0.09,1.62,1.02,-1.25,-4.371,2.41,-0.54,-4.67,-4.37,1.48,0.970,-19.61,-4.55,1.85,1.01,-0.78,-1.751,0.49,8.48,-19.61,-0.75,1.19,1.070,-19.61,-4.02,-0.62,0.97,-1.27,0.311,0.56,7.29,-19.61,1.00,1.44,0.870,-19.61,-5.05,-1.64,0.67,-1.26,1.541,0.45,6.17,-19.61,1.76,1.21,0.470,-18.55,-5.30,-2.50,0.20,-0.85,1.971,0.67,5.07,-17.20,1.97,0.67,0.030,-15.59,-4.80,-2.02,-0.19,-0.30,1.981,1.12,3.83,-14.85,1.91,0.13,-0.260,-13.93,-3.20,-1.46,-0.39,0.22,1.971,1.62,2.57,-13.74,2.00,-0.35,-0.360,-13.04,-1.58,-0.44,-0.43,0.57,2.151,1.84,1.43,-12.64,2.24,-0.58,-0.370,-11.89,-0.21,0.24,-0.41,0.71,2.431,2.34,0.38,-11.19,2.54,-0.67,-0.300,-10.83,0.70,0.92,-0.29,0.79,2.761,3.08,-0.11,-10.53,2.93,-0.82,-0.140,-10.32,1.53,0.54,-0.13,1.13,3.231,3.41,-0.59,-9.60,3.44,-1.31,0.010,-9.82,1.88,0.71,0.01,1.63,3.701,2.80,-1.05,-9.21,3.87,-1.75,0.120,-9.23,1.95,0.43,0.07,1.97,4.071,2.19,-1.44,-8.45,4.13,-1.95,0.180,-8.94,1.81,0.79,0.13,1.96,4.271,1.46,-1.66,-8.57,4.29,-1.71,0.190,-8.89,1.73,0.96,0.13,1.52,4.311,0.53,-2.39,-7.96,4.21,-1.14,0.140,-7.69,2.93,-1.07,-0.08,1.10,4.261,0.19,-2.83,-6.80,4.29,-0.96,-0.160,-6.80,2.89,-0.72,-0.30,1.01,4.371,1.04,-2.23,-6.16,4.37,-0.92,-0.240,-6.09,2.79,-0.42,-0.25,1.10,4.371,2.29,-2.20,-4.45,4.37,-1.11,-0.060,-4.33,3.10,0.40,-0.02,1.33,4.371,2.23,-3.24,-2.86,4.37,-1.36,0.140,-2.89,3.82,0.42,0.11,1.52,4.371,1.87,-4.12,-1.50,4.37,-1.41,0.210,-1.93,4.27,0.90,0.13,1.42,4.371,1.78,-4.36,-0.66,4.37,-1.16,0.190,-0.98,4.68,1.39,0.13,1.08,4.371,1.73,-4.36,0.39,4.37,-0.79,0.240,0.11,5.14,1.22,0.21,0.72,4.371,2.04,-4.26,2.01,4.37,-0.51,0.360,1.88,5.10,1.20,0.35,0.53,4.371,2.12,-4.37,4.36,4.37,-0.38,0.450,4.54,4.82,1.57,0.38,0.52,4.371,3.70,-4.22,7.92,4.37,-0.50,0.510,8.75,4.26,2.12,0.50,0.75,4.371,3.97,-5.99,12.64,4.37,-0.83,0.580,13.58,5.42,1.13,0.40,1.15,4.371,2.60,-9.20,17.63,4.37,-1.22,0.320,19.54,7.41,-0.07,0.10,1.48,3.991,1.22,-13.33,19.61,2.96,-1.52,0.020,19.61,9.84,-1.11,-0.16,1.69,1.901,-0.26,-15.53,19.61,0.82,-1.62,-0.190,19.61,11.70,-1.68,-0.29,1.61,-0.051,-1.57,-14.51,19.61,-0.77,-1.41,-0.240,19.03,11.98,-2.17,-0.25,1.25,-1.141,-2.01,-12.24,16.96,-1.39,-0.94,-0.140,15.34,11.60,-1.74,-0.08,0.72,-1.421,-1.01,-11.30,14.33,-1.50,-0.38,0.090,13.77,10.73,-0.23,0.24,0.18,-1.531,0.68,-11.24,13.67,-1.75,0.09,0.390,13.32,10.55,0.35,0.43,-0.13,-1.871,1.75,-11.37,13.41,-2.17,0.30,0.480,12.89,10.03,1.16,0.49,-0.29,-2.381,2.41,-10.65,12.66,-2.73,0.44,0.540,11.51,9.19,1.31,0.58,-0.46,-2.931,2.00,-9.71,11.01,-3.21,0.64,0.610,9.79,8.61,1.11,0.59,-0.71,-3.331,1.42,-8.87,9.27,-3.55,0.97,0.540,7.96,7.99,0.76,0.46,-1.09,-3.601,0.93,-7.94,7.44,-3.75,1.37,0.370,6.09,7.20,0.25,0.26,-1.47,-3.761,0.82,-7.00,5.68,-3.89,1.71,0.170,4.36,6.29,-0.17,0.10,-1.71,-3.871,0.81,-6.00,4.07,-3.99,1.84,0.060,2.72,5.21,-0.51,0.05,-1.80,-3.981,0.59,-4.90,2.40,-4.08,1.89,0.040,1.18,4.34,-0.94,0.05,-1.82,-4.051,0.35,-4.09,0.95,-4.15,1.91,0.060,-0.39,3.67,-1.19,0.08,-1.87,-4.101,0.12,-3.42,-0.44,-4.17,1.94,0.070,-1.51,3.03,-1.35,0.04,-1.86,-4.141,0.32,-3.24,-1.47,-4.31,1.93,-0.020,-2.46,2.25,-0.68,-0.07,-1.87,-4.371,0.96,-2.83,-2.59,-4.37,1.99,-0.130,-4.13,2.03,0.39,-0.16,-2.01,-4.371,1.71,-1.91,-4.04,-4.37,2.16,-0.150,-5.46,1.54,0.66,-0.05,-2.14,-4.371,2.07,-1.62,-5.37,-4.37,2.18,0.010,-6.33,1.85,-0.42,-0.00,-1.93,-4.371,2.60,-2.03,-6.00,-4.37,1.73,-0.040,-7.77,2.29,-0.11,-0.07,-1.31,-4.371,3.20,-1.96,-8.59,-4.37,1.02,-0.140,-10.94,2.89,0.17,-0.23,-0.65,-4.371,2.77,-1.71,-12.55,-4.11,0.51,-0.260,-14.34,3.69,1.43,-0.29,-0.46,-3.681,2.57,-2.10,-15.33,-3.33,0.68,-0.240,-16.26,3.61,1.95,-0.14,-0.77,-2.931,2.70,-2.29,-16.86,-2.70,0.96,-0.010,-17.18,2.73,1.90,0.08,-1.01,-2.421,2.71,-1.24,-17.36,-2.30,1.21,0.230,-17.19,1.43,1.72,0.40,-1.25,-2.031,2.62,-0.05,-17.47,-1.91,1.40,0.600,-17.84,0.29,0.77,0.72,-1.30,-1.681,2.38,1.31,-19.35,-1.45,1.28,0.770,-19.61,-0.14,-0.58,0.75,-1.00,-0.981,1.61,2.13,-19.61,-0.63,0.83,0.680,-19.61,-0.32,-1.81,0.52,-0.48,-0.121,0.86,2.39,-19.61,0.32,0.28,0.370,-19.61,-0.18,-2.23,0.11,0.07,0.821,0.91,1.53,-19.01,1.15,-0.22,-0.070,-17.14,0.17,-1.48,-0.30,0.53,1.501,1.73,0.31,-15.79,1.69,-0.67,-0.390,-14.14,0.85,0.05,-0.52,0.94,1.921,3.08,-0.62,-13.01,2.06,-1.04,-0.440,-11.82,1.85,1.45,-0.43,1.26,2.241,3.62,-2.00,-11.24,2.30,-1.27,-0.270,-11.07,2.98,2.00,-0.25,1.38,2.451,3.38,-2.67,-11.27,2.58,-1.30,-0.100,-11.64,3.71,2.05,-0.05,1.29,2.821,2.80,-2.49,-11.96,3.05,-1.09,0.120,-12.25,3.73,1.66,0.17,1.05,3.401,2.63,-2.26,-12.06,3.65,-0.87,0.350,-12.03,3.52,1.01,0.35,0.93,3.961,2.10,-2.85,-11.33,4.13,-0.95,0.430,-11.06,3.73,-0.63,0.32,1.26,4.321,2.31,-3.63,-9.60,4.29,-1.43,0.350,-9.04,3.46,-0.14,0.22,1.83,4.261,2.88,-4.10,-7.21,4.10,-2.02,0.250,-6.92,3.81,0.69,0.16,2.31,4.051,3.00,-3.88,-5.17,4.09,-2.26,0.340,-4.85,3.78,0.96,0.28,2.34,4.001,1.83,-3.81,-4.16,3.91,-2.20,0.380,-4.45,3.60,0.69,0.36,2.17,3.951,0.69,-3.06,-3.57,3.95,-1.92,0.430,-3.47,3.06,-0.50,0.30,1.84,4.051,0.06,-2.60,-2.20,4.03,-1.64,0.330,-2.19,2.56,-1.12,0.20,1.65,4.071,0.06,-2.64,-1.13,4.04,-1.54,0.170,-1.14,2.88,-1.25,-0.03,1.61,4.111,0.19,-2.92,0.10,4.12,-1.51,-0.090,0.11,3.19,-0.94,-0.30,1.53,4.201,0.35,-3.12,1.30,4.21,-1.37,-0.340,1.14,3.56,-0.67,-0.51,1.34,4.301,0.43,-3.32,2.16,4.34,-1.14,-0.490,1.78,3.73,-0.43,-0.61,1.08,4.371,0.71,-3.23,2.77,4.37,-0.87,-0.550,2.38,3.71,-0.44,-0.66,0.83,4.371,1.16,-2.93,3.64,4.37,-0.63,-0.570,3.75,3.77,0.68,-0.60,0.63,4.371,2.52,-3.05,6.05,4.37,-0.51,-0.410,6.64,3.79,1.47,-0.35,0.66,4.371,3.95,-3.82,9.59,4.37,-0.70,-0.120,10.19,4.19,1.78,-0.07,1.04,4.371,4.35,-5.64,13.63,4.37,-1.28,0.070,14.67,5.00,0.55,-0.07,1.78,4.371,3.85,-8.15,19.46,4.30,-2.17,-0.150,19.61,6.38,0.11,-0.42,2.76,3.611,3.92,-12.55,19.61,2.62,-3.19,-0.550,19.61,9.31,1.10,-0.79,3.62,1.491,3.45,-16.15,19.61,0.27,-3.75,-0.770,19.61,12.23,2.58,-0.75,3.73,-0.691,2.27,-15.64,19.61,-1.44,-3.39,-0.500,19.61,13.29,3.20,-0.28,2.95,-1.811,1.36,-13.68,19.61,-2.04,-2.30,0.060,18.56,13.69,3.26,0.31,1.70,-1.981,1.38,-13.22,17.36,-1.97,-0.92,0.510,16.44,13.43,3.91,0.59,0.28,-1.911,2.59,-13.51,16.01,-2.06,0.40,0.640,15.12,12.35,4.85,0.68,-0.82,-2.161,4.46,-12.49,14.31,-2.40,1.34,0.800,13.22,11.16,5.28,0.96,-1.58,-2.491,5.20,-11.09,12.69,-2.71,1.91,1.120,11.49,9.45,4.47,1.28,-1.98,-2.781,4.91,-9.12,11.10,-2.96,2.16,1.380,9.84,7.96,3.26,1.45,-2.11,-2.951,3.75,-7.46,9.70,-3.07,2.26,1.430,8.49,6.86,1.89,1.38,-2.21,-3.011,2.78,-6.50,8.32,-3.09,2.35,1.260,7.10,6.20,1.09,1.12,-2.29,-3.021,2.08,-6.13,7.24,-3.10,2.41,0.930,6.18,5.86,0.39,0.76,-2.30,-3.071,1.98,-6.02,6.27,-3.22,2.34,0.630,5.04,5.30,-0.07,0.54,-2.17,-3.271,1.63,-5.75,5.01,-3.46,2.15,0.450,4.04,4.86,-0.57,0.38,-1.95,-3.541,1.34,-5.47,4.08,-3.79,1.90,0.300,3.03,4.26,-0.86,0.25,-1.68,-3.931,1.35,-4.96,2.95,-4.20,1.60,0.200,1.90,3.99,-0.93,0.17,-1.39,-4.321,1.21,-4.68,2.01,-4.37,1.29,0.120,0.65,3.63,-1.04,0.12,-1.08,-4.371,0.94,-3.88,0.66,-4.37,1.05,0.110,-0.64,2.98,-0.76,0.13,-0.94,-4.371,0.84,-2.87,-0.59,-4.37,1.04,0.150,-1.62,1.74,-0.06,0.19,-1.08,-4.371,0.79,-2.48,-1.04,-4.37,1.19,0.190,-14.59,-2.19,0.92,0.04,2.54,-4.371,0.83,4.93,-13.83,-4.37,-2.16,0.430,-15.73,-2.46,1.06,0.85,1.81,-4.371,-0.21,6.56,-17.09,-4.37,-1.19,1.260,-19.36,-3.72,-0.21,1.66,0.64,-3.771,-2.86,9.57,-19.61,-2.83,0.06,2.000,-19.61,-6.06,-2.96,2.28,-0.61,-1.611,-6.32,13.31,-19.61,-0.42,1.28,2.480,-19.61,-9.18,-7.78,2.64,-1.66,0.891,-10.04,15.01,-19.61,1.85,2.27,2.690,-19.61,-11.84,-11.13,2.61,-2.54,2.761,-11.93,14.40,-19.61,3.29,2.84,2.370,-19.61,-12.50,-15.11,1.95,-2.58,3.691,-11.93,11.56,-18.55,3.68,2.34,1.470,-16.77,-11.40,-15.21,0.90,-1.71,3.561,-9.64,8.54,-15.32,3.17,1.31,0.370,-13.91,-9.26,-13.20,-0.26,-0.65,2.821,-7.19,6.11,-12.91,2.39,0.17,-0.780,-11.82,-6.81,-10.40,-1.34,0.48,2.081,-4.46,4.58,-11.47,1.75,-0.97,-1.640,-10.75,-5.21,-7.41,-1.96,1.53,1.551,-2.56,3.48,-10.91,1.37,-1.87,-2.000,-10.98,-3.16,-4.47,-2.06,2.13,1.351,-2.15,2.45,-11.51,1.39,-2.06,-1.860,-11.51,-1.30,-2.72,-1.79,1.91,1.621,-2.27,2.17,-11.65,1.86,-1.55,-1.540,-11.11,-0.53,-2.21,-1.48,1.26,2.231,-2.06,1.99,-10.97,2.59,-0.84,-1.290,-10.44,-0.14,-1.64,-1.24,0.52,3.021,-1.79,1.97,-10.55,3.41,-0.02,-1.000,-10.70,0.40,-1.46,-0.87,-0.29,3.941,-1.45,1.64,-10.36,4.37,0.69,-0.640,-10.33,0.67,-1.98,-0.63,-0.86,4.371,-1.73,0.74,-9.01,4.37,1.17,-0.550,-8.95,1.09,-3.78,-0.71,-1.15,4.371,-2.21,-0.95,-7.31,4.37,1.18,-0.770,-7.30,1.60,-5.07,-1.02,-0.88,4.371,-1.65,-1.96,-5.89,4.37,0.76,-1.100,-6.40,1.23,-3.77,-1.28,-0.46,4.371,-0.69,-1.80,-5.13,4.37,0.37,-1.230,-5.40,1.41,-3.41,-1.32,-0.06,4.371,-0.22,-1.82,-3.93,4.37,-0.09,-1.230,-3.94,1.51,-2.47,-1.31,0.40,4.371,0.58,-2.26,-2.40,4.37,-0.52,-1.210,-2.66,2.21,-1.95,-1.31,0.78,4.371,0.55,-3.16,-1.57,4.37,-0.82,-1.220,-2.13,2.87,-1.68,-1.33,0.99,4.371,0.54,-3.40,-1.33,4.37,-0.98,-1.240,-1.68,3.12,-1.15,-1.34,1.07,4.371,0.51,-3.34,-0.87,4.37,-0.95,-1.250,-1.47,3.61,-0.57,-1.34,0.89,4.371,0.62,-3.35,-0.01,4.37,-0.66,-1.220,0.62,4.03,0.66,-1.25,0.59,4.371,2.53,-4.17,2.69,4.37,-0.35,-1.080,3.02,5.19,2.83,-1.06,0.31,4.371,4.61,-5.50,5.62,4.37,-0.06,-0.780,6.14,6.34,5.05,-0.62,-0.02,4.371,6.05,-6.89,8.15,4.37,0.31,-0.230,8.57,8.06,5.95,-0.02,-0.37,4.371,5.62,-9.25,10.08,4.37,0.70,0.260,9.33,10.18,4.99,0.33,-0.84,4.371,4.19,-9.72,10.22,4.37,1.20,0.470,9.17,10.46,3.36,0.42,-1.31,4.371,2.68,-9.07,11.89,4.37,1.60,0.450,12.82,9.47,0.78,0.31,-1.49,4.371,2.23,-11.34,17.82,4.37,1.49,0.340,19.61,9.01,-0.61,0.30,-1.08,4.371,1.56,-14.82,19.61,3.30,0.84,0.370,19.61,9.65,-2.20,0.35,-0.34,2.061,0.19,-15.18,19.61,0.75,0.09,0.430,19.61,10.18,-3.00,0.45,0.25,-0.211,-1.65,-13.30,19.61,-1.06,-0.31,0.510,19.61,10.38,-3.85,0.50,0.42,-1.571,-3.02,-11.84,19.54,-2.03,-0.27,0.490,17.72,10.33,-3.64,0.44,0.21,-2.271,-2.74,-10.92,16.56,-2.58,0.09,0.400,15.22,9.22,-1.92,0.31,-0.31,-2.771,-1.12,-9.80,14.52,-3.07,0.66,0.230,13.23,8.45,-0.45,0.17,-0.83,-3.241,0.67,-8.97,12.87,-3.53,1.10,0.160,11.41,7.60,0.47,0.17,-1.15,-3.681,1.77,-7.71,11.04,-3.92,1.29,0.200,9.19,6.77,0.70,0.25,-1.24,-3.971,1.90,-6.58,8.88,-4.10,1.36,0.270,7.24,6.07,0.54,0.27,-1.35,-4.081,1.37,-5.78,7.07,-4.16,1.50,0.230,5.49,5.52,-0.03,0.17,-1.50,-4.081,0.97,-5.16,5.41,-4.14,1.63,0.090,4.20,4.80,-0.55,-0.01,-1.58,-4.101,0.69,-4.83,4.39,-4.21,1.64,-0.100,3.21,3.99,-1.24,-0.19,-1.49,-4.251,0.52,-4.16,3.34,-4.37,1.44,-0.260,2.07,3.09,-1.77,-0.30,-1.21,-4.371,0.51,-3.46,2.32,-4.37,1.09,-0.290,1.08,2.27,-1.97,-0.27,-0.81,-4.371,0.39,-3.08,1.44,-4.37,0.59,-0.240,0.02,1.54,-2.34,-0.22,-0.26,-4.371,0.22,-2.58,0.27,-4.37,0.10,-0.190,-1.58,0.81,-2.05,-0.18,0.09,-4.371,-0.28,-1.62,-1.20,-4.37,-0.14,-0.180,-3.06,-0.25,-2.07,-0.17,0.26,-4.371,-0.49,-0.59,-1.70,-4.37,-0.23,-0.180,-3.64,-1.11,-2.65,-0.18,0.34,-4.371,-0.36,0.45,-2.97,-4.37,-0.47,-0.210,-5.59,-1.79,-2.40,-0.18,0.69,-4.371,0.23,1.50,-4.54,-4.37,-0.93,-0.190,-7.41,-2.20,-3.11,-0.21,1.32,-4.371,0.44,2.46,-6.90,-4.37,-1.69,-0.240,-11.26,-2.17,-2.38,-0.22,2.04,-4.371,0.29,3.28,-12.07,-4.37,-2.19,-0.260,-16.26,-1.19,-1.31,-0.37,2.24,-4.371,0.42,3.53,-17.09,-4.37,-2.28,-0.400,-19.61,-0.73,-1.21,-0.31,2.38,-4.371,0.15,4.36,-19.61,-4.37,-2.32,-0.030,-19.61,-1.71,-1.68,0.32,2.20,-3.921,-2.54,6.22,-19.61,-3.19,-1.86,0.790,-19.61,-3.84,-4.16,1.23,1.51,-2.351,-6.23,8.16,-19.61,-1.62,-0.99,1.590,-19.61,-5.64,-7.69,1.72,0.60,-0.791,-9.47,9.73,-19.61,-0.10,0.04,1.700,-19.61,-7.09,-10.03,1.50,-0.49,0.671,-10.94,10.12,-19.19,1.22,0.97,1.250,-16.84,-8.06,-12.40,0.89,-1.06,1.711,-10.88,8.28,-15.84,1.86,1.13,0.500,-14.01,-7.00,-13.94,-0.02,-0.75,1.941,-9.37,5.44,-13.15,1.78,0.44,-0.460,-11.86,-5.34,-11.80,-0.94,0.04,1.581,-6.94,2.91,-11.90,1.29,-0.29,-1.230,-11.51,-2.94,-8.94,-1.55,0.62,1.161,-5.04,1.86,-12.10,1.04,-0.68,-1.620,-11.80,-1.66,-5.29,-1.71,0.72,1.101,-2.95,1.65,-12.33,1.16,-0.56,-1.560,-12.16,-0.51,-3.32,-1.48,0.49,1.421,-1.85,1.61,-12.76,1.63,-0.26,-1.230,-12.41,-0.57,-2.55,-1.10,0.15,1.891,-1.75,1.08,-12.70,2.10,0.07,-0.870,-12.36,0.54,-3.19,-0.80,-0.09,2.421,-2.62,0.47,-12.33,2.67,0.29,-0.670,-12.17,0.64,-3.93,-0.74,-0.38,2.981,-3.27,0.63,-11.94,3.19,0.63,-0.720,-11.66,0.51,-4.75,-0.86,-0.60,3.501,-2.85,0.52,-10.91,3.73,0.69,-0.870,-10.72,0.93,-4.43,-1.00,-0.59,4.031,-2.07,-0.00,-9.84,4.26,0.65,-0.940,-9.83,1.32,-3.47,-1.01,-0.53,4.371,-1.20,-0.59,-8.57,4.37,0.59,-0.910,-8.32,1.70,-3.00,-0.96,-0.46,4.371,-1.15,-1.51,-6.94,4.37,0.53,-0.870,-6.68,1.76,-2.99,-0.94,-0.42,4.371,-0.80,-1.75,-5.35,4.37,0.49,-0.850,-5.30,1.79,-2.24,-0.91,-0.34,4.371,0.28,-1.77,-3.75,4.37,0.37,-0.760,-3.78,2.08,-1.08,-0.73,-0.24,4.371,0.88,-2.26,-2.30,4.37,0.33,-0.490,-2.53,2.90,-0.59,-0.39,-0.20,4.371,1.20,-3.07,-1.20,4.37,0.24,-0.160,-1.71,3.51,-0.78,-0.17,-0.09,4.371,0.35,-3.68,-0.74,4.37,0.17,-0.100,-1.40,3.44,-1.72,-0.27,-0.10,4.371,-0.91,-3.71,-0.24,4.37,0.25,-0.340,-0.88,3.27,-2.51,-0.59,-0.22,4.371,-1.15,-3.46,0.09,4.37,0.37,-0.660,-0.37,3.46,-2.41,-0.86,-0.30,4.371,-0.15,-3.31,0.83,4.37,0.41,-0.840,0.39,3.97,-0.89,-0.90,-0.31,4.371,1.18,-3.55,1.73,4.37,0.42,-0.710,1.22,4.44,0.26,-0.63,-0.38,4.371,1.57,-3.68,2.99,4.37,0.58,-0.370,2.44,4.39,0.84,-0.25,-0.59,4.371,1.94,-3.63,4.69,4.37,0.80,0.040,4.76,4.28,1.42,0.19,-0.73,4.371,3.37,-3.45,7.32,4.37,0.81,0.510,7.44,3.99,2.52,0.69,-0.62,4.371,4.19,-4.03,11.32,4.37,0.60,0.930,12.81,4.08,1.99,0.93,-0.25,4.371,4.06,-6.46,17.61,4.37,0.04,0.950,19.61,5.21,0.40,0.74,0.47,4.371,2.87,-9.90,19.61,4.37,-0.73,0.600,19.61,6.75,-0.43,0.32,1.11,3.441,0.74,-12.39,19.61,2.39,-1.20,0.160,19.61,9.15,-1.35,-0.08,1.34,1.511,-0.80,-12.62,19.61,0.78,-1.19,-0.130,19.61,10.68,-1.36,-0.21,1.04,0.411,-2.23,-11.51,19.61,0.15,-0.59,-0.130,19.61,11.11,-1.76,-0.09,0.19,0.091,-3.09,-11.38,19.61,-0.11,0.40,0.050,19.61,10.27,-2.07,0.14,-0.80,-0.301,-2.44,-11.16,19.58,-0.68,1.28,0.250,19.01,8.88,-2.03,0.26,-1.48,-1.021,-1.13,-9.84,18.82,-1.50,1.72,0.250,17.83,7.17,-1.73,0.20,-1.65,-1.831,-0.19,-8.04,17.40,-2.26,1.70,0.200,15.85,5.81,-1.55,0.21,-1.61,-2.551,-0.09,-6.58,15.23,-2.92,1.70,0.230,13.54,5.00,-1.48,0.21,-1.62,-3.111,-0.14,-5.59,13.22,-3.39,1.70,0.160,11.70,4.50,-1.60,0.06,-1.62,-3.511,-0.11,-5.09,11.62,-3.72,1.70,-0.070,10.16,4.32,-1.53,-0.21,-1.58,-3.821,-0.13,-4.92,10.10,-4.05,1.62,-0.340,-7.95,-3.11,2.92,0.34,-0.96,-4.371,2.12,4.82,-8.24,-4.37,1.48,0.540,-12.30,-4.75,0.66,0.78,-1.72,-4.371,-0.52,7.54,-14.67,-4.37,1.85,0.870,-19.61,-6.13,-6.57,0.93,-1.43,-4.371,-3.50,10.73,-19.61,-4.37,1.15,0.890,-19.61,-5.52,-5.20,0.84,-1.14,-3.611,-5.76,11.45,-19.61,-2.07,1.52,0.740,-19.61,-4.57,-5.66,0.63,-1.88,-0.381,-4.98,10.93,-19.61,0.72,2.39,0.580,-19.61,-7.76,-6.68,0.41,-2.20,1.401,-2.59,8.66,-19.61,1.64,1.89,0.110,-17.66,-7.54,-4.93,-0.26,-1.38,1.741,-0.69,6.20,-17.43,1.62,1.11,-0.470,-17.59,-5.70,-2.78,-0.69,-0.79,1.561,-0.08,4.96,-18.74,1.51,0.82,-0.600,-18.90,-4.24,-1.16,-0.48,-0.76,1.681,0.77,5.04,-19.16,1.87,0.84,-0.230,-18.48,-3.19,-1.36,-0.14,-0.65,2.201,0.96,3.96,-18.15,2.49,0.57,-0.080,-16.93,-1.81,-1.21,-0.20,-0.31,2.841,1.50,2.40,-15.86,3.09,0.21,-0.230,-14.39,-1.15,-0.83,-0.39,0.09,3.321,2.08,1.32,-13.24,3.39,-0.25,-0.390,-11.65,-1.30,-0.37,-0.49,0.62,3.461,2.63,1.02,-10.41,3.41,-0.83,-0.420,-9.62,-0.99,-0.03,-0.50,1.15,3.411,2.29,0.73,-8.71,3.35,-1.21,-0.450,-8.35,-0.51,0.43,-0.57,1.38,3.411,2.48,0.57,-7.66,3.47,-1.35,-0.550,-7.46,0.52,0.89,-0.68,1.49,3.671,3.17,-0.26,-6.51,3.84,-1.48,-0.660,-6.49,1.83,1.56,-0.76,1.62,4.081,3.15,-1.69,-5.50,4.22,-1.55,-0.670,-5.55,2.72,1.85,-0.75,1.55,4.371,2.55,-2.76,-4.86,4.37,-1.34,-0.620,-4.92,3.36,1.62,-0.67,1.27,4.371,2.07,-3.29,-4.05,4.37,-1.03,-0.530,-4.32,3.95,0.78,-0.55,0.96,4.371,1.62,-3.94,-3.51,4.37,-0.78,-0.390,-4.40,4.45,0.32,-0.38,0.76,4.371,1.05,-4.22,-3.97,4.37,-0.60,-0.210,-4.92,4.76,-0.51,-0.22,0.63,4.371,0.51,-4.17,-4.18,4.37,-0.48,-0.110,-4.72,4.49,-1.00,-0.17,0.51,4.371,0.00,-3.93,-3.49,4.37,-0.34,-0.100,-3.59,3.90,-1.33,-0.20,0.38,4.371,-0.38,-3.51,-1.86,4.37,-0.21,-0.150,-2.00,3.22,-1.55,-0.26,0.23,4.371,-0.51,-3.12,-0.39,4.37,-0.03,-0.190,-0.66,2.77,-1.27,-0.24,-0.01,4.371,-0.41,-2.49,0.81,4.37,0.25,-0.130,0.39,2.57,-1.07,-0.20,-0.26,4.371,0.34,-2.37,2.11,4.37,0.46,-0.150,1.79,2.77,-0.21,-0.27,-0.41,4.371,1.74,-2.44,3.92,4.37,0.55,-0.190,3.84,2.86,1.22,-0.20,-0.47,4.371,3.08,-2.89,6.27,4.37,0.59,-0.030,6.85,3.30,2.45,-0.02,-0.44,4.371,5.17,-4.09,9.93,4.37,0.43,0.200,10.67,4.33,3.78,0.25,-0.13,4.371,7.03,-6.06,13.89,4.37,-0.03,0.390,14.58,6.53,5.35,0.35,0.43,4.371,8.06,-8.66,17.63,4.37,-0.61,0.390,18.03,9.29,5.37,0.20,0.92,4.371,6.20,-11.99,19.61,4.35,-0.96,0.080,19.61,10.55,4.30,-0.16,1.08,3.851,4.53,-14.81,19.61,3.00,-0.95,-0.160,19.61,11.28,2.46,-0.20,1.04,2.041,3.14,-16.48,19.61,0.88,-0.97,-0.020,19.61,11.77,1.38,0.14,1.11,-0.131,2.41,-15.21,19.61,-1.08,-1.07,0.410,19.61,11.45,1.01,0.61,1.14,-1.681,2.05,-12.66,19.61,-2.23,-1.02,0.820,19.61,10.31,2.08,0.98,0.94,-2.511,2.38,-10.87,18.61,-2.86,-0.60,1.120,16.92,9.83,2.95,1.14,0.38,-3.001,3.44,-10.32,16.47,-3.25,0.00,1.090,14.85,9.33,4.35,1.02,-0.26,-3.331,4.46,-9.25,14.17,-3.52,0.68,0.970,12.52,8.38,5.13,0.96,-0.96,-3.531,4.92,-7.97,12.04,-3.64,1.37,0.980,10.55,7.33,4.63,1.05,-1.55,-3.581,4.67,-7.01,10.76,-3.69,1.80,1.110,9.52,6.43,3.32,1.18,-1.80,-3.661,4.07,-6.32,9.61,-3.78,1.94,1.190,8.17,5.75,2.39,1.20,-1.87,-3.751,3.33,-5.71,8.14,-3.85,1.99,1.140,6.93,5.28,1.72,1.11,-1.93,-3.801,2.71,-5.41,6.89,-3.92,2.05,1.060,5.48,5.03,1.10,1.02,-2.01,-3.891,2.07,-4.98,5.52,-3.99,2.15,0.940,4.17,4.55,0.57,0.90,-2.11,-3.951,1.65,-4.48,4.27,-4.06,2.24,0.860,3.15,3.52,-0.02,0.86,-2.19,-4.071,1.07,-3.62,3.44,-4.26,2.29,0.830,2.21,2.49,-0.81,0.84,-2.18,-4.311,0.66,-2.72,2.62,-4.37,2.21,0.840,1.51,1.34,-1.91,0.90,-2.00,-4.371,0.27,-1.75,2.01,-4.37,1.90,0.920,0.60,-0.11,-2.48,0.98,-1.65,-4.371,-0.32,-0.46,0.72,-4.37,1.50,0.960,-0.96,-1.22,-3.38,0.93,-1.20,-4.371,-0.50,0.52,-0.19,-4.37,1.03,0.830,-1.11,-3.18,-3.22,0.72,-0.73,-4.371,-0.20,1.26,-0.14,-4.37,0.59,0.520,-2.21,-4.55,-3.06,0.38,-0.30,-4.371,0.10,2.33,-0.88,-4.37,-0.08,0.190,-4.22,-4.82,-3.90,0.07,0.69,-4.371,0.64,3.84,-3.16,-4.37,-1.20,-0.050,-6.66,-5.88,-2.93,-0.12,1.68,-4.371,0.13,4.76,-4.98,-4.37,-2.07,-0.270,-9.55,-5.69,-3.24,-0.38,2.44,-4.371,-0.48,5.98,-8.09,-4.37,-2.71,-0.480,-14.08,-6.12,-3.48,-0.47,2.92,-4.371,-2.63,7.59,-14.58,-4.37,-3.02,-0.450,-19.61,-3.70,-5.72,-0.54,2.99,-4.371,-5.24,7.93,-19.61,-4.37,-2.82,-0.740,-19.61,-2.04,-3.88,-0.81,2.49,-4.371,-2.98,8.21,-19.61,-4.21,-1.88,-0.550,-19.61,-2.49,1.13,-0.10,1.12,-2.901,-1.35,7.65,-19.61,-1.80,-0.27,0.520,-18.78,-3.72,-0.21,1.14,-0.36,-0.791,-3.59,8.23,-19.10,-0.16,1.18,1.740,-18.91,-6.87,-4.01,2.19,-1.73,0.421,-6.60,9.47,-19.61,0.82,2.29,2.460,-19.61,-8.42,-8.42,2.56,-2.43,1.331,-8.70,10.18,-19.61,1.63,2.65,2.430,-19.61,-9.23,-11.84,2.05,-2.41,1.961,-9.17,9.41,-19.47,2.11,2.26,1.530,-18.55,-8.42,-13.26,0.89,-1.70,2.301,-8.37,7.74,-18.17,2.25,1.23,0.320,-17.41,-7.53,-12.35,-0.24,-0.55,2.221,-7.11,5.91,-17.31,2.07,0.13,-0.580,-16.37,-5.85,-10.12,-0.94,0.35,1.991,-5.98,4.64,-16.07,1.87,-0.59,-1.080,-14.83,-4.73,-8.13,-1.28,0.90,1.871,-4.50,4.44,-14.40,1.84,-1.04,-1.260,-13.50,-4.06,-6.58,-1.36,1.25,1.951,-3.86,4.15,-13.06,2.04,-1.29,-1.300,-12.29,-3.04,-5.61,-1.40,1.36,2.231,-4.05,3.33,-11.97,2.38,-1.22,-1.350,-10.92,-2.30,-5.10,-1.48,1.15,2.591,-4.16,2.63,-10.27,2.73,-0.90,-1.460,-9.15,-1.90,-4.90,-1.63,0.76,2.881,-4.05,1.95,-8.37,2.96,-0.48,-1.640,-7.21,-1.44,-4.60,-1.79,0.37,3.071,-2.72,1.70,-6.52,3.15,-0.22,-1.760,-5.91,-0.79,-3.82,-1.89,0.28,3.291,-1.62,0.65,-5.32,3.38,-0.23,-1.840,-5.02,0.25,-3.00,-1.94,0.27,3.491,-1.33,-0.79,-4.45,3.54,-0.12,-1.890,-4.37,1.74,-2.48,-2.02,0.09,3.641,-1.37,-1.93,-4.03,3.68,0.14,-2.000,-3.95,2.50,-2.43,-2.15,-0.21,3.761,-0.76,-2.43,-3.38,3.79,0.41,-2.090,-3.49,3.00,-1.53,-2.16,-0.37,3.911,1.55,-3.00,-2.92,4.01,0.38,-1.980,-3.16,4.23,0.41,-1.93,-0.25,4.151,2.70,-4.59,-2.61,4.21,0.33,-1.660,-2.75,5.69,1.36,-1.58,-0.30,4.281,2.72,-6.22,-2.03,4.28,0.47,-1.320,-2.84,6.98,1.64,-1.26,-0.51,4.371,2.10,-6.82,-2.32,4.37,0.81,-1.050,-2.68,7.63,1.03,-1.02,-0.91,4.371,1.98,-7.92,-0.96,4.37,1.11,-0.870,-0.02,8.57,1.19,-0.88,-1.01,4.371,3.94,-9.08,2.95,4.37,1.09,-0.690,3.98,9.11,3.56,-0.58,-0.97,4.371,6.34,-10.76,6.66,4.18,1.00,-0.260,7.05,10.83,5.41,-0.07,-0.84,3.991,6.83,-12.97,8.18,3.72,0.91,0.220,7.43,13.29,5.60,0.30,-0.87,3.601,5.92,-14.75,7.86,3.42,1.14,0.450,7.19,15.12,5.32,0.46,-1.28,3.391,4.74,-15.65,7.77,3.30,1.65,0.530,7.56,15.18,4.15,0.55,-1.78,3.281,4.09,-15.43,8.72,3.07,2.05,0.710,8.44,14.26,2.72,0.80,-2.02,2.911,2.94,-15.27,9.71,2.59,2.14,0.910,9.97,13.41,1.04,0.91,-1.97,2.281,2.37,-15.10,11.19,1.75,1.97,0.950,11.41,12.36,0.23,0.91,-1.69,1.261,2.26,-14.56,12.15,0.60,1.66,0.900,11.97,11.41,-0.10,0.85,-1.34,0.071,2.38,-13.47,11.96,-0.59,1.23,0.850,11.27,10.41,0.19,0.84,-0.97,-1.061,2.13,-12.01,10.53,-1.61,0.93,0.880,9.20,9.61,-0.11,0.90,-0.75,-1.941,1.41,-10.53,8.02,-2.35,0.76,0.930,6.49,8.47,-0.52,0.94,-0.65,-2.571,0.75,-8.88,5.37,-2.87,0.72,0.930,3.89,7.41,-1.27,0.91,-0.60,-2.991,0.34,-7.57,3.15,-3.19,0.57,0.850,1.98,6.67,-2.52,0.76,-0.28,-3.231,0.30,-6.53,1.39,-3.38,0.07,0.700,0.45,5.90,-2.81,0.64,0.29,-3.391,-0.08,-5.88,-0.07,-3.53,-0.50,0.600,-1.01,5.38,-2.77,0.56,0.77,-3.521,-0.42,-5.31,-1.22,-3.61,-0.87,0.530,-2.83,5.56,1.56,-1.53,0.07,4.251,2.02,-5.20,-2.11,4.29,0.24,-1.340,-2.51,5.43,1.40,-1.32,-0.41,4.371,1.90,-4.72,-1.67,4.37,0.72,-1.100,-1.94,5.61,1.31,-1.05,-0.74,4.371,2.78,-4.87,-0.74,4.37,0.91,-0.880,-0.84,6.05,2.31,-0.81,-0.90,4.371,3.42,-5.67,0.95,4.37,1.17,-0.570,1.18,6.89,2.74,-0.51,-1.20,4.371,4.08,-6.63,3.91,4.37,1.45,-0.280,4.13,7.32,4.07,-0.16,-1.47,4.371,5.60,-7.40,6.81,4.37,1.68,0.140,6.95,7.90,5.38,0.31,-1.61,4.371,6.44,-8.71,9.82,4.37,1.72,0.580,9.97,9.19,5.11,0.66,-1.56,4.371,6.46,-10.22,12.79,4.37,1.58,0.800,13.39,9.56,4.54,0.76,-1.33,4.371,5.56,-11.83,16.76,4.37,1.30,0.760,18.33,10.17,2.57,0.60,-0.99,4.141,3.76,-14.55,19.61,3.28,0.87,0.530,19.61,11.08,0.06,0.38,-0.56,2.261,0.92,-16.94,19.61,1.02,0.46,0.310,19.61,11.89,-2.28,0.18,-0.22,-0.101,-1.21,-16.34,19.61,-1.17,0.17,0.130,19.61,11.96,-3.51,0.05,0.02,-1.881,-1.74,-13.77,19.36,-2.49,-0.06,0.050,16.46,11.13,-3.16,0.01,0.17,-2.791,-0.86,-11.28,15.25,-3.11,-0.06,0.080,13.30,9.57,-0.58,0.20,0.01,-3.251,0.72,-9.83,12.72,-3.45,0.12,0.340,11.20,8.74,0.39,0.49,-0.12,-3.521,2.05,-8.73,10.83,-3.76,0.29,0.660,9.22,7.44,1.73,0.81,-0.32,-3.851,2.89,-7.42,8.45,-4.04,0.49,0.910,6.58,6.56,1.82,0.95,-0.51,-4.061,2.67,-6.34,5.74,-4.18,0.67,0.920,3.90,5.84,1.17,0.85,-0.66,-4.121,2.25,-5.42,3.21,-4.18,0.75,0.740,1.56,5.21,0.09,0.63,-0.64,-4.071,1.56,-4.57,1.06,-4.07,0.62,0.480,-0.12,4.63,-1.09,0.33,-0.41,-3.951,0.85,-4.35,-0.34,-3.97,0.29,0.180,-1.34,4.53,-2.41,0.03,0.06,-3.871,0.45,-4.54,-1.55,-3.93,-0.38,-0.080,-2.57,4.19,-2.49,-0.15,0.78,-3.921,0.36,-4.79,-2.60,-4.11,-0.96,-0.120,-3.52,4.37,-1.67,-0.03,1.14,-4.211,0.21,-5.22,-3.55,-4.37,-1.16,0.190,-4.52,5.26,-1.17,0.45,1.19,-4.331,0.15,-4.96,-4.32,-4.36,-1.00,0.710,-4.85,5.42,-0.46,0.90,0.87,-4.191,0.14,-4.61,-4.49,-4.11,-0.62,1.010,-4.86,5.15,-1.01,1.04,0.53,-3.891,-0.07,-4.47,-4.71,-3.84,-0.38,1.010,-5.10,4.54,-1.75,0.96,0.43,-3.701,-0.26,-4.36,-5.00,-3.77,-0.36,0.930,-5.69,4.23,-2.33,0.90,0.48,-3.691,-0.34,-4.10,-5.97,-3.71,-0.51,0.830,-7.13,4.15,-2.06,0.77,0.58,-3.571,-0.63,-3.56,-7.88,-3.55,-0.44,0.740,-8.49,3.82,-1.80,0.72,0.37,-3.381,-0.89,-3.45,-8.98,-3.31,-0.21,0.720,-9.58,3.88,-1.96,0.76,0.18,-3.081,-0.92,-2.97,-10.12,-2.97,0.04,0.830,-10.43,3.52,-1.85,0.91,-0.15,-2.731,-1.13,-2.39,-11.13,-2.61,0.43,1.030,-11.38,2.77,-2.02,1.17,-0.56,-2.341,-1.64,-1.38,-12.02,-2.20,0.81,1.310,-12.10,1.63,-3.39,1.42,-0.83,-1.941,-2.87,-0.77,-12.46,-1.87,1.04,1.460,-12.15,1.10,-4.63,1.43,-1.06,-1.691,-3.89,-0.63,-12.34,-1.66,1.23,1.310,-11.71,1.11,-5.88,1.14,-1.13,-1.451,-3.92,-0.62,-11.77,-1.39,1.16,0.950,-11.58,0.95,-6.35,0.71,-0.94,-1.221,-3.53,-0.69,-12.20,-1.20,0.82,0.500,-12.46,0.90,-6.09,0.27,-0.49,-1.091,-3.01,-0.69,-13.61,-1.09,0.39,0.160,-14.01,0.79,-4.94,0.06,-0.21,-0.981,-2.91,-0.43,-15.27,-0.99,0.20,0.070,-16.03,0.36,-5.36,0.04,-0.03,-0.861,-3.80,0.63,-18.15,-0.77,-0.00,0.070,-19.24,-0.06,-6.62,0.04,0.19,-0.471,-4.93,1.56,-19.61,-0.20,-0.22,0.080,-19.61,-0.22,-7.41,0.04,0.36,0.231,-6.06,1.98,-19.61,0.54,-0.31,0.070,-19.61,-0.75,-8.48,0.00,0.45,0.941,-6.72,1.96,-18.96,1.16,-0.49,-0.060,-17.13,-1.28,-9.28,-0.29,0.70,1.411,-6.58,1.92,-16.26,1.50,-0.73,-0.460,-14.64,-1.44,-8.69,-0.76,0.91,1.651,-5.60,1.73,-13.83,1.73,-0.91,-0.900,-12.37,-1.13,-7.33,-1.17,1.09,1.881,-4.41,1.09,-11.93,1.95,-1.06,-1.290,-11.10,-0.41,-5.77,-1.49,1.13,2.071,-3.52,0.33,-10.71,2.14,-1.03,-1.530,-9.87,0.45,-4.54,-1.68,1.04,2.291,-2.54,-0.26,-9.36,2.40,-0.91,-1.640,-8.60,0.87,-3.35,-1.74,0.85,2.551,-1.89,-0.53,-8.26,2.63,-0.64,-1.650,-7.67,1.21,-2.49,-1.70,0.58,2.791,-0.87,-0.79,-7.42,2.90,-0.42,-1.590,-7.33,1.81,-2.28,-1.66,0.42,3.081,-0.76,-1.38,-7.33,3.20,-0.32,-1.570,-7.22,2.22,-2.34,-1.69,0.34,3.371,-0.96,-1.83,-6.87,3.47,-0.21,-1.650,-6.67,2.40,-2.62,-1.78,0.24,3.591,-1.23,-2.06,-6.12,3.64,-0.13,-1.740,-6.00,2.08,-2.86,-1.87,0.14,3.711,-1.66,-2.06,-5.13,3.70,-0.01,-1.860,-4.66,2.24,-3.24,-2.04,0.08,3.751,-0.91,-2.17,-3.52,3.75,-0.03,-2.030,-2.95,2.37,-2.32,-2.16,0.16,3.791,0.35,-2.66,-1.89,3.77,-0.14,-2.070,-1.58,3.05,-1.35,-2.17,0.24,3.791,1.01,-3.51,-0.61,3.74,-0.17,-2.070,-0.35,3.59,0.11,-2.10,0.22,3.731,2.75,-4.07,0.86,3.70,-0.15,-1.880,0.71,4.69,1.91,-1.78,0.19,3.721,3.67,-5.16,1.26,3.75,-0.02,-1.470,1.24,6.41,3.27,-1.31,-0.05,3.921,4.64,-6.16,2.60,4.06,0.34,-1.010,3.09,7.38,4.88,-0.83,-0.44,4.281,6.39,-7.09,5.56,4.37,0.69,-0.500,6.68,7.94,6.19,-0.30,-0.65,4.371,7.85,-8.76,9.53,4.34,0.74,-0.030,10.40,9.03,6.49,0.06,-0.56,4.231,8.04,-11.03,12.95,3.96,0.50,0.130,13.51,11.04,5.36,-0.04,-0.18,3.741,7.41,-13.91,15.55,3.36,0.02,-0.190,15.71,13.58,4.89,-0.51,0.30,2.971,6.64,-17.15,16.42,2.41,-0.31,-0.670,15.84,15.71,5.13,-0.81,0.36,1.921,5.24,-18.80,15.85,1.30,-0.19,-0.670,14.99,16.70,4.30,-0.61,0.09,0.821,4.15,-18.48,14.84,0.30,0.13,-0.360,14.61,16.03,2.84,-0.14,-0.13,-0.111,3.54,-17.30,14.57,-0.62,0.26,0.160,14.08,14.69,2.30,0.38,-0.20,-1.001,3.53,-15.42,13.82,-1.46,0.29,0.590,13.15,12.61,2.49,0.68,-0.23,-1.781,4.00,-13.03,12.96,-2.20,0.34,0.760,12.24,11.20,2.88,0.79,-0.26,-2.431,4.38,-11.45,11.95,-2.72,0.35,0.850,11.18,9.68,3.31,0.88,-0.34,-2.881,4.08,-9.90,11.15,-3.19,0.50,0.920,10.19,8.03,3.22,0.98,-0.54,-3.371,3.85,-8.36,10.01,-3.70,0.72,1.040,8.59,6.72,2.61,1.11,-0.72,-3.841,3.47,-6.93,8.23,-4.07,0.86,1.130,6.33,5.96,1.84,1.14,-0.83,-4.111,2.68,-5.88,5.74,-4.27,0.97,1.090,3.78,5.09,0.87,1.05,-0.95,-4.261,1.68,-4.62,3.14,-4.35,1.06,0.980,1.26,4.26,-0.23,0.93,-0.97,-4.251,1.26,-3.56,0.69,-4.26,0.99,0.860,-0.93,3.61,-1.31,0.82,-0.77,-4.081,0.79,-2.89,-1.56,-4.02,0.58,0.760,-2.95,3.23,-2.41,0.73,-0.20,-3.831,0.32,-2.62,-3.57,-3.85,0.07,0.720,-4.60,2.37,-1.69,0.73,0.06,-3.801,-0.12,-2.50,-4.94,-3.91,0.04,0.760,-5.30,1.65,-1.16,0.81,-0.09,-3.951,-0.50,-2.29,-4.38,-4.17,0.27,0.890,-3.90,1.59,-2.10,0.93,-0.26,-4.261,-0.61,-2.25,-2.85,-4.37,0.32,0.920,-2.89,1.11,-1.85,0.96,-0.24,-4.371,0.14,-1.42,-2.27,-4.37,0.32,0.990,-3.07,0.64,-1.53,1.00,-0.21,-4.371,0.88,-0.71,-3.22,-4.37,0.12,0.960,-5.53,0.71,-2.09,0.89,0.19,-4.371,0.41,-0.67,-6.63,-4.37,-0.33,0.720,-8.43,1.48,-1.86,0.46,0.51,-4.371,0.90,-0.74,-8.57,-4.37,-0.55,0.270,-9.10,1.01,-0.26,0.22,0.67,-4.331,1.86,-0.92,-8.50,-4.37,-0.67,0.260,-8.45,-0.39,0.61,0.35,0.72,-4.371,2.00,-0.68,-8.06,-4.37,-0.70,0.520,-9.25,-0.76,-0.48,0.65,0.90,-4.371,1.97,0.36,-9.61,-4.37,-1.01,0.750,-11.76,-1.38,0.15,0.82,1.13,-4.371,1.53,2.30,-12.69,-4.37,-1.05,0.820,-14.50,-1.82,-0.19,0.81,1.07,-4.371,1.68,4.20,-15.67,-4.37,-0.93,0.840,-17.65,-2.93,1.19,0.95,0.75,-4.291,1.30,6.04,-19.61,-3.75,-0.36,1.110,-19.61,-2.97,1.91,1.37,-0.03,-2.881,0.26,7.80,-19.61,-1.96,0.66,1.700,-19.61,-3.57,0.50,2.03,-1.16,-0.761,-2.35,10.16,-19.61,0.39,1.86,2.370,-19.61,-6.38,-3.59,2.66,-2.24,1.641,-6.01,12.61,-19.61,2.62,2.67,2.840,-19.61,-10.00,-10.45,2.83,-2.44,3.521,-9.34,12.82,-19.61,4.05,2.03,2.590,-19.61,-11.78,-16.41,2.10,-1.09,4.371,-10.66,10.30,-19.61,4.23,0.24,1.490,-19.61,-11.20,-17.61,0.71,1.03,3.811,-8.74,6.20,-15.72,3.03,-2.18,0.040,-12.11,-9.26,-14.52,-0.61,3.33,2.101,-7.19,3.40,-10.37,1.10,-4.07,-0.940,16.22,9.91,2.20,-0.54,0.07,3.811,1.64,-10.33,18.23,3.66,0.32,-0.590,19.36,9.46,1.21,-0.73,-0.42,3.431,2.05,-11.21,19.61,2.95,0.60,-0.660,19.61,8.73,1.01,-0.61,-0.48,2.351,3.20,-12.61,19.61,1.47,0.37,-0.360,19.61,8.84,0.62,-0.22,-0.00,0.571,3.08,-13.18,19.61,-0.49,-0.22,0.000,19.61,8.69,0.50,0.11,0.53,-1.371,2.29,-11.85,19.61,-2.23,-0.62,0.240,19.61,8.69,0.60,0.28,0.73,-2.771,1.65,-10.47,19.61,-3.27,-0.64,0.300,18.86,8.84,0.98,0.26,0.59,-3.541,1.71,-9.73,18.22,-3.89,-0.35,0.240,16.25,8.25,1.91,0.25,0.20,-4.061,2.60,-8.55,16.01,-4.34,0.08,0.310,14.17,7.16,2.69,0.42,-0.21,-4.371,3.11,-7.48,14.02,-4.37,0.49,0.540,11.84,5.99,2.69,0.68,-0.64,-4.371,2.80,-6.13,11.54,-4.37,0.89,0.770,9.37,4.73,1.82,0.87,-0.98,-4.371,2.32,-4.71,9.31,-4.37,1.18,0.900,7.18,3.53,0.86,0.93,-1.18,-4.371,2.07,-3.26,7.25,-4.37,1.26,0.900,4.99,2.62,0.36,0.88,-1.18,-4.371,1.78,-2.20,5.26,-4.37,1.21,0.790,3.38,1.90,-0.31,0.72,-1.09,-4.371,1.25,-1.51,3.72,-4.37,1.08,0.600,1.97,1.27,-0.99,0.51,-0.92,-4.371,0.82,-0.93,2.33,-4.37,0.87,0.400,0.69,0.71,-1.63,0.36,-0.66,-4.371,0.43,-0.28,0.95,-4.37,0.55,0.310,-0.46,-0.06,-2.07,0.31,-0.34,-4.371,-0.07,0.21,0.19,-4.37,0.22,0.290,-1.24,-0.67,-2.41,0.31,0.00,-4.371,-0.18,0.60,-0.60,-4.37,-0.06,0.330,-1.70,-1.35,-2.27,0.36,0.20,-4.371,-0.32,1.11,-0.68,-4.37,-0.19,0.360,-1.37,-2.37,-1.66,0.37,0.24,-4.371,0.17,1.28,0.06,-4.37,-0.27,0.340,-1.57,-2.39,-1.91,0.34,0.44,-4.371,-0.23,1.94,-0.83,-4.37,-0.42,0.330,-2.63,-2.07,-2.00,0.32,0.45,-4.371,-0.74,2.01,-1.54,-4.37,-0.39,0.260,-3.87,-1.29,-1.36,0.30,0.39,-4.371,0.05,2.90,-3.67,-4.37,-0.21,0.380,-5.74,-2.65,-0.26,0.51,0.05,-4.371,0.25,4.06,-6.17,-4.37,0.23,0.640,-8.32,-5.18,-0.74,0.69,-0.31,-4.371,1.59,6.09,-8.21,-4.37,0.26,0.540,-10.93,-9.22,-1.60,0.35,0.25,-4.371,3.93,10.14,-13.15,-4.37,-0.96,0.200,-19.61,-14.15,-2.33,0.15,1.86,-4.371,1.42,14.69,-19.61,-4.37,-2.72,0.120,-19.61,-11.19,-5.73,0.11,3.31,-4.371,-5.75,16.27,-19.61,-4.37,-3.44,0.210,-19.61,-10.19,-8.83,0.35,3.13,-3.371,-12.09,19.03,-19.61,-1.78,-2.34,0.500,-19.61,-13.02,-11.16,0.48,1.43,-0.111,-15.49,19.61,-19.61,1.24,-0.42,0.340,-19.61,-14.56,-15.36,-0.09,-0.21,2.301,-15.95,16.26,-19.61,2.89,0.68,-0.550,-19.61,-13.43,-17.20,-1.13,-0.64,3.181,-13.03,11.49,-19.61,3.09,0.59,-1.480,-17.11,-10.81,-13.91,-1.92,-0.32,2.931,-8.33,8.50,-15.65,2.68,0.21,-2.130,-13.93,-8.15,-8.87,-2.43,0.15,2.581,-2.85,6.79,-13.23,2.46,-0.39,-2.440,-12.58,-6.40,-3.86,-2.52,0.72,2.381,0.09,4.88,-12.53,2.30,-0.89,-2.350,-12.18,-4.24,-2.21,-2.32,1.15,2.331,0.58,4.10,-11.66,2.35,-1.28,-2.110,-10.83,-3.85,-1.42,-2.05,1.46,2.451,0.30,4.15,-10.09,2.55,-1.44,-1.820,-9.00,-3.23,-1.31,-1.82,1.42,2.731,-0.82,3.70,-8.26,2.90,-1.16,-1.720,-7.56,-2.41,-1.45,-1.86,0.94,3.171,-1.22,3.60,-6.75,3.47,-0.55,-1.860,-6.22,-1.86,-1.43,-2.03,0.36,3.871,-0.19,3.48,-5.41,4.29,-0.08,-1.970,-5.23,-1.09,-0.50,-2.05,0.01,4.371,1.25,2.38,-3.95,4.37,0.18,-1.900,-4.14,-0.02,0.15,-1.96,-0.23,4.371,0.95,0.41,-2.79,4.37,0.45,-1.840,-3.27,1.26,-0.43,-1.94,-0.50,4.371,0.71,-0.92,-1.75,4.37,0.71,-1.840,-2.47,1.64,-0.82,-1.91,-0.75,4.371,0.25,-1.24,-1.03,4.37,0.96,-1.730,-1.59,1.57,-1.36,-1.72,-0.93,4.371,0.11,-1.62,0.17,4.37,1.06,-1.500,-0.59,1.77,-1.93,-1.47,-0.97,4.371,-0.32,-2.19,1.32,4.37,1.07,-1.270,0.64,1.76,-2.60,-1.29,-0.94,4.371,-0.77,-2.50,2.34,4.37,1.00,-1.150,1.33,1.61,-3.09,-1.21,-0.83,4.371,-1.36,-2.43,2.39,4.37,0.85,-1.120,1.53,1.62,-3.83,-1.22,-0.64,4.371,-1.35,-2.07,2.32,4.37,0.58,-1.170,1.40,1.47,-3.63,-1.32,-0.34,4.371,-0.99,-1.62,2.44,4.37,0.31,-1.290,1.96,1.28,-2.89,-1.45,-0.11,4.371,-0.30,-1.37,2.95,4.37,0.13,-1.440,2.46,1.47,-1.50,-1.62,-0.04,4.371,0.96,-1.19,3.92,4.37,0.15,-1.600,4.22,1.72,0.61,-1.73,-0.09,4.371,3.76,-1.18,6.71,4.37,0.21,-1.640,7.50,2.72,3.97,-1.70,-0.09,4.371,7.86,-1.92,11.29,4.37,0.10,-1.540,12.19,3.59,7.71,-1.57,0.10,4.371,10.84,-4.09,16.19,4.37,-0.09,-1.430,18.26,4.92,8.70,-1.54,0.38,4.371,11.51,-9.40,19.61,4.37,-0.58,-1.460,19.61,6.54,8.36,-1.53,1.10,3.971,11.85,-14.88,19.61,2.53,-1.54,-1.340,19.61,10.18,8.48,-1.21,2.02,1.081,9.17,-17.71,19.61,-0.25,-2.15,-0.930,19.61,14.30,7.46,-0.79,2.09,-1.201,5.63,-18.29,19.61,-1.90,-1.71,-0.590,19.61,17.21,6.04,-0.47,1.31,-2.231,4.80,-18.10,19.61,-2.45,-0.80,-0.260,17.98,17.75,6.28,-0.08,0.45,-2.471,6.55,-17.13,17.08,-2.58,0.01,0.140,15.58,16.07,8.20,0.38,-0.35,-2.591,8.34,-14.89,14.95,-2.68,0.76,0.630,13.80,13.32,9.51,0.90,-0.98,-2.641,9.79,-12.02,13.66,-2.78,1.31,1.180,12.40,10.35,9.50,1.42,-1.45,-2.811,9.20,-9.68,11.97,-2.98,1.71,1.580,10.55,7.95,7.81,1.74,-1.74,-3.011,7.59,-7.18,10.20,-3.20,1.95,1.830,8.72,5.60,5.68,1.94,-1.95,-3.231,5.69,-5.28,8.42,-3.42,2.12,1.910,7.06,4.25,3.30,1.86,-2.04,-3.411,3.98,-4.06,7.03,-3.53,2.10,1.680,6.14,3.44,1.22,1.49,-1.92,-3.481,2.59,-3.50,6.43,-3.61,1.90,1.260,5.39,3.02,0.13,1.06,-1.72,-3.591,1.92,-3.15,5.80,-3.76,1.66,0.880,5.22,2.40,-0.72,0.78,-1.34,-3.811,1.69,-2.96,5.55,-4.03,1.23,0.730,4.45,2.34,-0.45,0.76,-1.00,-4.141,1.36,-3.14,4.31,-4.35,0.99,0.790,3.23,2.40,-0.61,0.84,-0.91,-4.371,0.58,-3.08,3.14,-4.37,1.04,0.820,1.62,1.65,-1.13,0.81,-0.95,-4.371,0.58,-1.91,1.58,-4.37,0.97,0.780,-0.04,0.35,-2.13,0.77,-0.72,-4.371,0.33,-0.87,-0.11,-4.37,0.45,0.700,-2.06,-0.55,-3.56,0.62,0.02,-4.371,0.17,-0.30,-1.79,-4.37,-0.39,0.520,-4.10,-1.27,-3.53,0.42,0.88,-4.371,0.17,0.11,-3.90,-4.37,-1.29,0.290,-6.50,-1.24,-3.85,0.16,1.80,-4.371,0.19,0.24,-5.64,-4.37,-2.11,0.080,-7.49,-0.68,-1.21,0.08,2.28,-4.371,1.35,0.07,-6.02,-4.37,-2.33,0.170,-8.61,0.67,0.38,0.32,2.34,-4.371,1.48,0.20,-8.00,-4.37,-2.12,0.450,-10.75,0.84,0.60,0.56,2.00,-4.371,1.66,1.26,-10.70,-4.37,-1.91,0.710,-13.07,0.39,0.30,0.89,1.91,-4.371,1.40,2.06,-13.35,-4.37,-1.75,1.060,-14.55,0.50,0.14,1.26,1.66,-4.371,0.47,1.62,-14.35,-4.05,-1.38,1.440,-14.02,0.68,0.01,1.63,1.12,-3.501,-0.45,1.59,-13.24,-3.16,-0.64,1.810,-11.79,-0.38,-0.75,2.02,0.33,-2.761,-1.13,1.88,-11.37,-2.56,0.10,2.150,-10.82,-1.14,-1.70,2.24,-0.34,-2.221,-2.09,2.62,-11.20,-2.06,0.74,2.180,-10.75,-2.42,-3.68,2.05,-0.83,-1.841,-2.68,2.96,-11.11,-1.86,1.00,1.870,-11.26,-3.37,-5.55,1.61,-0.81,-1.811,-3.08,3.15,-12.22,-1.95,0.65,1.320,-13.55,-3.87,-6.21,1.04,-0.22,-1.961,-2.20,3.79,-15.68,-2.01,-0.10,0.850,-17.17,-3.39,-5.28,0.77,0.57,-1.841,-1.81,4.70,-19.55,-1.71,-0.72,0.870,-19.61,-4.43,-3.63,1.06,0.82,-1.441,-2.95,6.37,-19.61,-1.22,-0.60,1.350,-19.61,-5.20,-4.97,1.63,0.49,-0.771,-5.85,7.86,-19.61,-0.33,-0.27,1.890,-19.61,-6.03,-9.60,2.06,0.34,0.301,-9.71,9.62,-19.61,0.82,-0.23,2.130,-19.61,-7.91,-13.18,1.99,0.31,1.461,-12.54,10.81,-19.61,1.99,-0.25,1.700,-19.61,-8.45,-15.16,1.16,0.45,2.591,-12.31,10.12,-18.59,2.93,-0.43,0.610,-15.89,-8.60,-14.19,-0.04,0.61,3.211,-10.86,8.04,-13.96,3.24,-0.64,-0.520,-12.00,-7.87,-12.26,-1.05,0.81,3.201,-9.01,6.44,-10.61,2.99,-0.79,-1.370,-9.41,-6.56,-10.53,-1.76,0.98,2.881,-6.80,5.35,-8.83,2.78,-1.09,-1.860,-8.17,-5.04,-8.08,-2.07,1.25,2.771,-4.89,4.15,-7.73,2.73,-1.17,-2.080,-7.35,-3.55,-5.16,-2.29,1.11,2.771,-3.00,3.02,-7.00,2.79,-0.92,-2.330,-6.53,-2.37,-3.56,-2.54,0.88,2.881,-1.09,2.20,-6.34,2.97,-0.81,-2.480,-6.12,1.29,-3.08,-1.47,-0.57,3.971,-0.77,-1.36,-5.84,3.95,0.61,-1.390,-6.16,1.84,-2.55,-1.47,-0.52,4.031,-0.92,-1.74,-5.48,4.07,0.60,-1.410,-5.32,2.10,-2.65,-1.53,-0.52,4.161,-0.43,-1.84,-4.34,4.16,0.59,-1.480,-4.10,2.07,-2.00,-1.59,-0.43,4.221,0.67,-2.17,-2.92,4.20,0.43,-1.530,-2.81,2.41,-0.72,-1.61,-0.25,4.211,2.44,-2.75,-1.73,4.19,0.19,-1.450,-1.88,3.28,0.62,-1.45,0.06,4.211,3.04,-3.97,-1.25,4.16,-0.09,-1.280,-1.63,4.33,1.05,-1.32,0.20,4.151,2.19,-4.76,-1.04,4.07,-0.07,-1.200,-1.72,4.75,0.91,-1.25,0.06,4.111,1.72,-4.20,-1.51,4.17,0.17,-1.130,-2.20,4.64,0.69,-1.19,-0.29,4.341,0.70,-3.45,-1.53,4.37,0.63,-1.100,-1.78,4.01,-0.34,-1.21,-0.76,4.371,1.34,-2.95,0.04,4.37,0.94,-1.140,0.27,3.85,0.56,-1.21,-0.79,4.371,3.47,-3.49,1.86,4.37,0.77,-1.090,1.51,4.75,2.44,-1.09,-0.59,4.371,5.07,-4.68,3.55,4.37,0.61,-0.890,3.85,5.89,3.73,-0.87,-0.45,4.371,6.12,-5.91,7.07,4.37,0.47,-0.690,8.21,5.98,5.52,-0.67,-0.29,4.371,8.44,-7.08,11.61,4.37,0.30,-0.460,12.45,6.65,7.73,-0.40,-0.14,4.371,9.27,-9.23,15.56,4.37,0.18,-0.250,16.84,8.86,7.16,-0.32,0.06,4.281,9.01,-12.42,19.61,3.72,-0.17,-0.270,19.61,10.77,6.91,-0.35,0.45,3.101,8.18,-15.23,19.61,2.29,-0.52,-0.270,19.61,12.71,5.71,-0.31,0.71,1.511,6.33,-17.25,19.61,0.65,-0.70,-0.210,19.61,14.61,4.55,-0.18,0.79,-0.051,4.87,-17.61,19.61,-0.73,-0.67,-0.040,19.61,15.25,3.58,0.05,0.66,-1.181,3.69,-16.45,18.78,-1.63,-0.46,0.230,16.66,14.53,3.68,0.39,0.33,-1.871,4.24,-14.51,15.59,-2.14,-0.04,0.620,14.22,12.96,4.68,0.78,-0.10,-2.251,5.49,-12.84,13.86,-2.42,0.33,0.930,12.61,11.83,5.58,1.08,-0.38,-2.421,6.58,-10.99,12.09,-2.52,0.57,1.250,10.84,9.89,5.93,1.40,-0.62,-2.491,6.21,-9.23,10.58,-2.63,0.87,1.500,9.79,8.01,5.00,1.58,-0.92,-2.651,5.38,-7.81,9.82,-2.82,1.08,1.600,9.02,6.76,3.37,1.58,-1.00,-2.851,4.24,-6.87,9.14,-3.05,1.06,1.510,8.47,5.80,1.99,1.45,-0.94,-3.121,3.39,-6.31,8.75,-3.37,0.99,1.380,7.83,5.26,1.69,1.38,-0.87,-3.481,3.25,-5.81,7.86,-3.70,0.90,1.380,6.78,4.99,1.19,1.41,-0.78,-3.791,2.49,-5.59,6.89,-4.04,0.84,1.420,5.54,4.44,0.57,1.47,-0.75,-4.151,1.80,-4.94,5.59,-4.37,0.83,1.470,4.56,3.93,0.03,1.50,-0.74,-4.371,1.56,-4.58,4.77,-4.37,0.82,1.470,3.58,3.27,-0.40,1.46,-0.73,-4.371,1.47,-3.88,3.87,-4.37,0.74,1.420,2.27,2.43,-0.53,1.44,-0.58,-4.371,1.37,-2.74,2.57,-4.37,0.57,1.440,0.68,1.08,-1.26,1.48,-0.38,-4.371,1.04,-1.25,0.88,-4.37,0.28,1.440,-0.84,-0.19,-2.14,1.43,0.05,-4.371,1.05,-0.05,-0.43,-4.37,-0.28,1.360,-2.66,-1.37,-1.93,1.33,0.56,-4.371,0.47,1.03,-2.40,-4.37,-0.71,1.240,-4.70,-1.79,-2.82,1.18,0.97,-4.371,-0.15,2.07,-4.25,-4.37,-1.12,1.070,-5.82,-3.06,-3.28,1.00,1.34,-4.371,-0.59,2.70,-4.95,-4.37,-1.58,0.880,-7.26,-2.59,-4.29,0.83,1.98,-4.371,-1.13,3.11,-6.34,-4.37,-2.21,0.790,-8.48,-2.99,-3.26,0.78,2.37,-4.371,-0.97,4.08,-7.66,-4.37,-2.31,0.810,-9.92,-3.68,-1.85,0.96,2.24,-4.371,-0.51,5.76,-10.71,-4.37,-2.03,1.200,-13.69,-3.90,-0.57,1.55,1.76,-4.371,-1.41,7.12,-14.87,-4.37,-1.19,1.920,-16.48,-4.26,-0.78,2.37,0.57,-4.141,-3.78,9.00,-18.01,-3.45,0.33,2.800,-19.09,-7.55,-3.91,3.24,-1.02,-2.601,-7.64,12.70,-19.61,-1.96,1.77,3.520,-19.61,-11.21,-11.11,3.70,-2.03,-1.231,-12.67,13.69,-19.61,-0.75,2.24,3.570,-19.61,-11.99,-18.02,3.23,-1.92,-0.161,-15.85,13.30,-19.61,0.18,1.70,2.560,-19.61,-11.29,-19.61,1.62,-1.23,0.571,-15.35,11.02,-19.61,0.73,1.00,0.570,-18.31,-9.42,-17.41,-0.55,-0.56,0.921,-11.40,8.59,-17.25,0.92,0.30,-1.410,-15.64,-8.10,-13.20,-2.15,0.09,0.901,-8.14,6.65,-15.75,0.81,-0.33,-2.530,-14.87,-5.92,-9.59,-2.84,0.62,0.821,-5.44,5.14,-15.19,0.82,-0.71,-2.770,-14.43,-4.18,-6.10,-2.70,0.76,0.961,-4.05,4.35,-14.55,1.12,-0.61,-2.400,-13.61,-2.94,-4.50,-2.22,0.50,1.381,-3.28,3.90,-13.68,1.63,-0.29,-1.890,-12.90,-2.39,-4.33,-1.78,0.23,1.961,-3.15,3.52,-12.77,2.19,-0.06,-1.570,-12.04,-2.27,-4.76,-1.56,0.05,2.441,-3.63,2.98,-11.82,2.60,0.11,-1.480,-11.09,-2.19,-5.09,-1.59,-0.11,2.831,-3.49,3.04,-10.74,2.99,0.23,-1.560,-10.17,-2.11,-5.13,-1.73,-0.23,3.221,-3.64,2.74,-9.55,3.37,0.35,-1.770,-8.80,-1.77,-4.82,-1.96,-0.32,3.561,-2.79,2.13,-8.12,3.68,0.44,-1.960,-7.65,-1.04,-4.14,-2.14,-0.40,3.861,-1.89,1.36,-6.89,3.96,0.49,-2.120,-6.61,-0.42,-3.34,-2.27,-0.41,4.101,-0.99,0.48,-5.80,4.18,0.47,-2.230,-5.68,0.35,-2.58,-2.36,-0.37,4.291,-0.22,-0.39,-4.84,4.33,0.42,-2.290,-5.04,0.87,-2.29,-2.41,-0.31,4.371,0.46,-0.85,-4.11,4.37,0.33,-2.320,-3.97,1.07,-1.00,-2.39,-0.17,4.371,1.81,-1.40,-2.79,4.37,0.16,-2.230,-2.53,1.97,0.16,-2.25,-0.00,4.371,2.44,-2.82,-1.54,4.32,0.02,-2.070,-1.43,3.02,0.50,-2.09,0.09,4.251,2.11,-3.91,-0.82,4.12,-0.01,-1.920,-1.21,3.66,0.42,-1.94,0.07,4.051,1.99,-3.80,-1.08,4.01,0.02,-1.770,-1.80,4.23,0.64,-1.79,0.04,4.121,1.88,-3.91,-1.43,4.24,0.15,-1.660,-1.70,4.99,1.28,-1.71,-0.27,4.371,1.99,-4.29,-0.53,4.37,0.62,-1.580,-0.37,5.21,2.05,-1.60,-0.80,4.371,2.96,-4.53,0.91,4.37,1.13,-1.410,1.41,4.98,3.13,-1.37,-1.22,4.371,4.88,-4.94,3.52,4.37,1.40,-1.180,4.28,5.50,3.95,-1.15,-1.22,4.371,7.29,-6.51,6.95,4.37,1.10,-0.950,8.77,6.86,6.26,-0.86,-0.69,4.371,10.47,-9.54,11.80,4.28,0.47,-0.600,13.26,10.06,8.88,-0.50,-0.09,3.921,11.77,-13.47,15.10,3.49,-0.07,-0.330,15.15,13.76,10.21,-0.35,0.27,3.161,10.60,-16.48,15.87,2.79,-0.19,-0.300,15.49,16.11,8.86,-0.43,0.17,2.521,8.09,-17.69,16.05,2.14,0.10,-0.400,16.13,16.51,6.87,-0.40,-0.22,1.801,5.76,-18.76,16.55,1.33,0.54,-0.300,16.39,17.03,4.32,-0.29,-0.64,0.921,4.37,-19.07,16.40,0.37,0.87,-0.170,15.74,16.25,3.51,-0.05,-0.88,-0.101,4.72,-17.65,15.22,-0.72,1.01,0.230,14.13,14.20,3.76,0.51,-0.89,-1.191,5.94,-15.04,13.54,-1.74,0.90,0.830,12.52,12.20,4.47,1.10,-0.71,-2.071,6.49,-12.95,12.12,-2.47,0.64,1.290,10.90,10.76,4.75,1.39,-0.43,-2.701,6.25,-11.09,10.52,-3.05,0.43,1.410,9.22,9.39,4.50,1.38,-0.29,-3.191,5.88,-9.29,8.95,-3.42,0.35,1.360,7.84,8.23,4.59,1.38,-0.28,-3.451,5.64,-7.92,7.82,-3.59,0.39,1.400,6.88,7.10,3.88,1.46,-0.33,-3.591,4.71,-6.89,7.05,-3.76,0.44,1.490,5.99,5.98,2.73,1.53,-0.37,-3.811,3.76,-6.03,6.02,-4.02,0.46,1.540,4.97,5.03,1.59,1.56,-0.36,-4.081,2.71,-5.30,5.07,-4.29,0.42,1.500,3.79,4.31,0.57,1.47,-0.34,-4.341,1.69,-4.39,3.51,-4.37,0.41,1.400,2.07,3.29,-0.55,1.35,-0.33,-4.371,0.99,-3.39,2.10,-4.37,0.39,1.270,0.83,2.34,-0.79,1.28,-0.28,-4.371,0.84,-2.53,1.14,-4.37,0.31,1.280,-0.40,1.41,-1.38,1.32,-0.17,-4.371,0.66,-1.51,-0.25,-4.37,0.11,1.340,-1.91,0.24,-1.90,1.42,0.13,-4.371,0.29,-0.37,-1.60,-4.37,-0.18,1.450,-3.10,-0.53,-1.92,1.48,0.32,-4.371,-0.23,0.27,-2.44,-4.37,-0.23,1.470,-3.79,-1.61,-1.78,1.47,0.19,-4.371,-0.46,1.07,-3.07,-4.37,-0.15,1.430,-4.46,-1.58,-2.67,1.42,0.28,-4.371,-0.47,1.49,-3.71,-4.37,-0.29,1.380,-5.30,-1.26,-2.99,1.38,0.48,-4.371,-0.55,1.82,-4.68,-4.37,-0.58,1.350,-6.26,-1.63,-2.99,1.37,0.79,-4.371,-0.47,2.61,-6.10,-4.37,-0.87,1.370,-8.33,-1.98,-2.40,1.40,0.97,-4.371,-0.38,3.53,-8.71,-4.37,-0.87,1.350,-10.53,-2.44,-1.35,1.30,0.88,-4.371,0.60,4.66,-11.02,-4.37,-0.73,1.270,-12.53,-4.15,-0.13,1.38,0.72,-4.261,1.09,6.16,-13.65,-4.11,-0.50,1.580,-15.74,-6.49,0.25,1.90,0.34,-3.851,0.18,8.53,-17.94,-3.63,-0.02,2.270,-19.61,-8.03,-1.33,2.69,-0.18,-3.081,-2.85,12.20,-19.61,-2.57,0.69,2.980,-16.35,-12.40,-16.76,-1.59,1.97,1.331,-11.93,10.10,-15.50,1.21,-2.03,-2.180,-14.18,-9.59,-12.43,-2.67,2.05,1.211,-9.00,8.78,-13.88,1.20,-1.88,-2.780,-13.07,-8.08,-8.73,-2.91,1.75,1.321,-6.46,8.11,-13.10,1.49,-1.56,-2.760,-12.55,-6.54,-6.82,-2.77,1.45,1.761,-5.18,7.04,-12.50,2.02,-1.21,-2.640,-11.75,-5.47,-5.57,-2.75,1.04,2.351,-4.08,6.38,-11.33,2.66,-0.81,-2.700,-10.81,-4.40,-5.03,-2.79,0.75,3.051,-3.32,5.61,-10.32,3.36,-0.56,-2.640,-9.80,-4.17,-4.26,-2.68,0.46,3.641,-3.09,4.75,-9.08,3.84,-0.20,-2.570,-8.51,-3.45,-4.08,-2.72,0.07,4.051,-2.92,3.96,-7.66,4.21,0.16,-2.700,-7.24,-2.93,-4.28,-2.90,-0.20,4.371,-2.07,3.43,-6.31,4.37,0.34,-2.850,-6.32,-2.19,-2.97,-2.98,-0.38,4.371,-1.42,2.57,-5.66,4.37,0.55,-2.860,-5.92,-1.07,-2.78,-2.95,-0.59,4.371,-1.14,1.47,-4.51,4.37,0.83,-2.800,-4.47,-0.34,-2.24,-2.84,-0.91,4.371,-0.64,0.36,-2.65,4.37,1.16,-2.640,-2.88,0.33,-1.74,-2.63,-1.22,4.371,0.04,-0.33,-1.54,4.37,1.43,-2.400,-2.10,0.76,-1.41,-2.38,-1.45,4.371,0.06,-0.96,-0.62,4.37,1.60,-2.170,-1.00,1.04,-2.10,-2.17,-1.51,4.371,-0.12,-1.53,0.45,4.37,1.56,-2.000,0.20,1.42,-2.60,-2.03,-1.35,4.371,-0.03,-2.30,1.73,4.37,1.29,-1.890,1.21,1.93,-2.64,-1.97,-1.07,4.371,-0.40,-2.78,2.29,4.37,1.07,-1.870,1.60,2.23,-2.60,-1.96,-0.94,4.371,-0.76,-2.84,2.36,4.37,0.98,-1.880,2.10,2.36,-2.60,-1.97,-0.84,4.371,-0.25,-2.92,3.17,4.30,0.86,-1.900,3.02,2.55,-2.30,-2.01,-0.71,4.181,-0.03,-3.53,3.99,3.98,0.71,-1.930,3.77,3.07,-1.86,-2.01,-0.53,3.861,1.52,-3.38,4.69,3.74,0.49,-1.890,5.01,3.66,0.62,-1.91,-0.27,3.771,4.91,-4.11,7.07,3.82,0.14,-1.730,7.88,5.55,4.07,-1.67,0.16,3.911,8.48,-6.49,10.27,3.92,-0.27,-1.380,10.83,7.45,7.88,-1.22,0.45,3.901,10.23,-9.44,13.02,3.74,-0.39,-0.940,13.13,10.22,9.83,-0.90,0.40,3.601,10.53,-12.54,14.31,3.39,-0.17,-0.750,14.23,13.52,10.16,-0.78,0.06,3.291,10.56,-15.50,15.64,3.14,0.16,-0.670,15.61,15.81,9.91,-0.63,-0.17,3.031,10.17,-17.46,16.85,2.75,0.36,-0.420,17.43,16.62,8.11,-0.27,-0.30,2.431,8.02,-19.17,19.39,1.81,0.34,0.050,19.61,15.78,5.19,0.24,-0.12,1.081,6.00,-19.61,19.61,0.06,-0.06,0.460,19.61,15.43,2.40,0.51,0.46,-0.821,4.30,-18.68,19.61,-1.73,-0.61,0.520,19.61,14.02,2.38,0.49,0.86,-2.511,4.72,-15.38,19.61,-3.27,-0.88,0.560,17.59,11.42,4.12,0.66,0.91,-3.811,5.31,-12.39,16.18,-4.26,-0.76,0.780,13.77,10.64,5.73,0.92,0.62,-4.371,6.41,-10.16,13.17,-4.37,-0.27,1.060,10.88,9.39,7.09,1.20,-0.02,-4.371,6.61,-8.43,10.11,-4.37,0.48,1.300,7.77,8.47,7.17,1.39,-0.84,-4.361,6.19,-6.91,7.26,-4.22,1.37,1.420,5.72,7.21,6.26,1.51,-1.67,-3.931,5.35,-5.56,5.93,-3.83,2.09,1.570,4.69,5.65,4.11,1.65,-2.20,-3.611,4.02,-4.58,4.74,-3.59,2.42,1.650,3.79,4.44,1.98,1.63,-2.38,-3.431,2.73,-3.84,4.20,-3.48,2.50,1.500,3.64,3.15,0.68,1.37,-2.40,-3.451,1.92,-3.26,4.22,-3.64,2.45,1.160,3.51,1.92,-0.48,0.97,-2.26,-3.761,1.32,-2.62,3.90,-4.10,2.21,0.750,2.72,0.78,-1.59,0.57,-1.92,-4.341,1.00,-1.74,2.83,-4.37,1.69,0.410,1.20,-0.47,-2.40,0.32,-1.29,-4.371,0.56,-0.41,1.06,-4.37,0.97,0.240,-0.80,-1.70,-2.94,0.22,-0.50,-4.371,1.19,1.21,-0.74,-4.37,0.11,0.280,-2.32,-2.90,-2.23,0.41,0.28,-4.371,0.53,1.66,-1.98,-4.37,-0.47,0.460,-4.06,-3.87,-1.68,0.52,0.65,-4.371,0.17,2.45,-3.39,-4.37,-0.77,0.480,-5.67,-3.48,-2.51,0.41,1.03,-4.371,0.51,3.00,-4.34,-4.37,-1.25,0.260,-6.64,-4.15,-2.60,0.12,1.62,-4.371,0.81,3.58,-5.09,-4.37,-1.98,-0.020,-7.84,-4.54,-2.48,-0.12,2.39,-4.371,1.47,4.45,-6.13,-4.37,-2.81,-0.180,-9.68,-5.38,-1.38,-0.19,3.22,-4.371,1.87,5.73,-8.37,-4.37,-3.46,-0.140,-12.23,-6.03,0.36,-0.02,3.56,-4.371,2.01,7.15,-11.42,-4.37,-3.48,0.180,-15.88,-5.99,1.57,0.51,3.29,-4.371,1.17,8.68,-16.72,-4.37,-2.87,0.900,-19.61,-4.84,1.33,1.33,2.30,-4.371,-1.48,10.93,-19.61,-4.37,-1.47,1.710,-19.61,-5.31,0.48,2.10,0.60,-3.471,-3.29,13.64,-19.61,-2.03,0.54,2.460,-19.61,-8.25,-1.07,2.81,-1.47,-0.461,-4.98,15.12,-19.61,0.72,2.45,3.040,-19.61,-11.33,-4.11,3.23,-2.98,1.781,-6.37,13.95,-19.61,2.34,3.46,3.250,-19.47,-12.32,-9.14,3.12,-3.27,2.741,-6.97,11.90,-18.99,2.68,3.15,2.860,-18.79,-12.52,-10.85,2.48,-2.55,2.571,-6.47,10.40,-19.04,2.28,2.14,2.020,-19.05,-10.76,-10.71,1.44,-1.40,2.111,-5.59,8.56,-19.46,1.90,0.94,0.920,-18.77,-8.32,-9.24,0.36,-0.34,1.871,-4.42,7.16,-18.43,1.78,-0.04,-0.030,-17.40,-6.84,-7.78,-0.43,0.57,1.811,-3.32,6.25,-16.74,1.78,-0.86,-0.580,-15.42,-6.00,-6.14,-0.75,1.24,1.831,-2.86,5.77,-14.41,1.81,-1.42,-0.750,-13.34,-5.49,-5.54,-0.87,1.68,1.871,-3.06,5.27,-12.75,1.86,-1.78,-0.900,-11.96,-4.97,-5.21,-1.13,1.97,1.931,-2.66,4.65,-11.87,1.97,-2.03,-1.190,-11.52,-4.27,-4.19,-1.38,2.11,2.071,-2.47,4.36,-11.53,2.15,-1.98,-1.400,-11.27,-3.66,-3.35,-1.55,1.90,2.371,-2.08,4.62,-11.03,2.63,-1.70,-1.470,-10.92,-2.89,-3.28,-1.53,1.65,2.981,-2.32,3.87,-10.66,3.30,-1.42,-1.400,-10.47,-2.22,-3.05,-1.45,1.26,3.621,-2.76,2.90,-9.74,3.86,-0.98,-1.380,-9.41,-1.48,-4.19,-1.51,0.94,4.131,-2.49,2.15,-8.21,4.30,-0.80,-1.470,-8.07,-1.66,-3.86,-1.56,0.83,4.371,-1.86,1.99,-7.18,4.37,-0.73,-1.410,-7.43,-1.01,-3.50,-1.44,0.77,4.371,-2.12,1.40,-6.66,4.37,-0.59,-1.350,-6.69,-0.45,-3.11,-1.47,0.49,4.371,-2.36,0.80,-5.41,4.37,-0.17,-1.410,-5.54,-0.34,-3.57,-1.53,0.09,4.371,-2.60,0.74,-4.54,4.37,0.12,-1.460,-4.92,-0.25,-3.88,-1.57,-0.15,4.371,-2.49,0.47,-3.43,4.37,0.35,-1.520,-3.52,0.07,-3.38,-1.63,-0.40,4.371,-1.81,0.23,-1.64,4.37,0.62,-1.530,-1.59,0.39,-2.50,-1.61,-0.67,4.371,-0.97,-0.09,0.68,4.37,0.88,-1.470,0.29,0.50,-2.13,-1.51,-0.87,4.371,-0.54,-0.46,2.21,4.37,1.04,-1.360,1.59,0.96,-1.75,-1.38,-1.01,4.371,-0.15,-1.21,3.40,4.37,1.18,-1.230,2.64,1.77,-1.56,-1.27,-1.12,4.371,-0.06,-2.13,4.52,4.37,1.28,-1.150,3.81,3.02,-1.20,-1.22,-1.28,4.371,0.31,-2.87,6.68,4.37,1.52,-1.120,7.31,3.81,0.28,-1.16,-1.56,4.371,2.16,-3.73,11.48,4.37,1.87,-0.960,11.93,4.63,2.85,-0.89,-2.01,4.371,3.57,-5.64,15.78,4.37,2.41,-0.640,15.27,6.98,3.47,-0.61,-2.60,4.371,2.66,-8.51,18.38,4.37,3.11,-0.490,17.12,9.01,2.80,-0.52,-3.38,4.371,1.16,-10.64,19.42,4.37,3.89,-0.430,17.75,9.76,0.25,-0.52,-4.08,4.371,-0.41,-11.20,19.61,4.37,4.37,-0.500,19.45,8.82,-2.40,-0.61,-4.33,4.371,-1.20,-11.87,19.61,3.97,4.27,-0.620,19.61,8.02,-5.35,-0.76,-3.74,3.071,-1.93,-12.63,19.61,1.92,3.24,-0.800,19.61,7.19,-7.59,-0.93,-2.37,0.761,-2.49,-12.04,19.61,-0.46,1.59,-0.980,19.61,6.72,-8.70,-1.10,-0.58,-1.531,-2.73,-10.67,19.61,-2.57,-0.38,-1.140,19.61,6.02,-7.90,-1.23,1.30,-3.391,-2.28,-8.83,19.61,-4.22,-1.89,-1.200,18.07,5.24,-4.52,-1.22,2.28,-4.371,-0.87,-7.44,17.81,-4.37,-2.43,-1.170,15.27,4.70,-1.00,-1.12,2.55,-4.371,1.30,-6.24,15.33,-4.37,-2.53,-1.020,11.87,4.09,1.97,-0.97,2.43,-4.371,2.93,-5.05,11.91,-4.37,-2.23,-0.880,8.04,3.85,3.71,-0.78,2.04,-4.371,4.10,-4.13,8.34,-4.37,-1.83,-0.660,4.56,3.82,4.02,-0.55,1.68,-4.371,4.17,-3.43,5.09,-4.37,-1.50,-0.480,1.82,4.07,3.63,-0.46,1.31,-4.371,3.19,-2.88,2.75,-4.37,-1.03,-0.460,0.84,2.62,2.39,-0.46,0.89,-4.371,3.03,-1.94,2.35,-4.37,-0.80,-0.490,0.71,1.21,1.25,-0.52,0.91,-4.371,3.20,-1.14,2.30,-4.37,-1.07,-0.560,0.11,-0.74,0.28,-0.59,1.43,-4.371,3.44,-0.16,1.38,-4.37,-1.86,-0.580,-2.15,-1.80,-0.23,-0.53,2.36,-4.371,2.90,1.14,-1.19,-4.37,-2.81,-0.450,-4.86,-2.69,-0.08,-0.33,3.13,-4.371,1.83,1.82,-3.05,-4.37,-3.22,-0.170,-11.41,-6.16,-2.94,0.73,3.63,-4.371,1.25,7.54,-10.10,-4.37,-4.12,0.860,-14.73,-6.55,-2.03,1.12,4.37,-4.371,0.40,8.19,-14.84,-4.37,-4.37,1.450,-18.88,-4.86,-0.65,1.81,4.22,-4.371,-0.98,8.19,-18.60,-4.37,-3.76,2.100,-19.61,-3.20,0.22,2.44,3.14,-4.371,-1.16,10.04,-19.61,-3.69,-2.22,2.870,-19.61,-4.42,1.25,3.46,1.35,-2.161,-2.63,12.99,-19.61,-0.76,-0.27,4.070,-19.12,-8.46,-0.82,4.37,-0.60,0.831,-6.63,17.07,-18.94,2.00,1.75,4.370,-17.64,-15.11,-6.79,4.37,-2.29,3.031,-10.88,19.22,-16.42,3.49,2.86,4.370,-15.36,-19.61,-14.22,4.37,-2.70,3.701,-13.30,18.84,-13.71,3.30,2.40,4.370,-12.90,-19.61,-19.61,3.51,-1.32,2.761,-12.96,17.20,-13.36,1.85,0.29,2.420,-13.37,-19.61,-19.61,1.21,1.05,0.981,-12.36,15.76,-14.60,-0.12,-2.05,0.020,-14.86,-18.32,-18.76,-1.21,3.02,-0.951,-12.01,13.81,-15.92,-1.46,-3.61,-2.130,-16.18,-14.35,-12.87,-2.92,3.80,-1.551,-9.43,13.73,-16.20,-1.31,-3.65,-3.290,-15.66,-10.65,-7.72,-3.66,3.26,-0.721,-7.39,12.14,-15.08,0.02,-2.71,-3.680,-13.63,-7.94,-5.25,-3.81,2.10,0.821,-5.60,9.93,-12.69,1.51,-1.44,-3.620,-10.85,-6.79,-4.46,-3.55,0.92,2.071,-4.44,7.99,-9.86,2.44,-0.48,-3.220,-8.62,-6.52,-4.77,-3.12,0.23,2.681,-3.75,6.81,-8.19,2.84,0.02,-2.900,-7.81,-5.63,-4.99,-2.98,-0.08,3.041,-2.93,6.39,-7.97,3.27,0.15,-2.950,-7.97,-4.44,-4.68,-3.17,-0.06,3.591,-1.88,4.91,-7.74,3.89,0.11,-3.210,-7.80,-2.70,-3.08,-3.43,-0.11,4.201,-0.89,3.09,-7.30,4.37,0.24,-3.390,-7.43,-1.39,-2.59,-3.50,-0.22,4.371,-0.57,1.51,-6.45,4.37,0.34,-3.290,-6.62,-0.66,-2.31,-3.24,-0.37,4.371,-0.86,0.51,-5.59,4.37,0.56,-2.930,-5.85,-0.00,-2.27,-2.81,-0.62,4.371,-0.83,0.20,-5.03,4.37,0.79,-2.490,-5.51,0.60,-2.64,-2.42,-0.79,4.371,-1.12,-0.17,-4.54,4.37,0.91,-2.210,-4.91,0.91,-3.11,-2.25,-0.84,4.371,-1.05,-0.89,-3.55,4.37,0.89,-2.100,-3.90,1.10,-3.24,-2.18,-0.77,4.371,-0.93,-1.62,-2.49,4.37,0.79,-2.060,-3.09,1.64,-3.02,-2.10,-0.62,4.371,-0.75,-2.32,-2.16,4.37,0.65,-1.940,-2.85,2.35,-2.83,-1.98,-0.58,4.371,-1.12,-2.71,-1.87,4.37,0.66,-1.860,-2.34,2.54,-3.37,-1.92,-0.52,4.371,-0.79,-2.58,-1.20,4.37,0.50,-1.740,-1.66,2.32,-2.80,-1.74,-0.30,4.371,-0.29,-2.63,-0.60,4.37,0.30,-1.560,-0.89,2.58,-1.88,-1.55,-0.20,4.371,-0.52,-2.73,0.30,4.37,0.36,-1.360,-0.08,2.81,-2.02,-1.39,-0.37,4.371,-1.03,-2.36,1.06,4.37,0.56,-1.270,0.97,2.41,-2.28,-1.35,-0.59,4.371,-0.75,-1.87,2.35,4.37,0.77,-1.270,2.49,2.38,-1.80,-1.36,-0.71,4.371,0.52,-2.07,4.23,4.37,0.79,-1.270,4.14,3.28,-0.58,-1.36,-0.67,4.371,2.17,-3.11,6.64,4.37,0.75,-1.260,7.05,4.44,1.59,-1.30,-0.65,4.371,4.17,-5.04,10.28,4.37,0.75,-1.120,10.63,5.64,3.68,-1.09,-0.66,4.371,6.19,-6.94,13.71,4.37,0.74,-0.830,14.54,7.27,5.41,-0.70,-0.55,4.371,7.67,-9.81,17.79,4.37,0.48,-0.410,18.25,9.63,5.39,-0.31,-0.21,4.371,6.78,-13.03,19.61,4.08,0.15,-0.080,19.61,11.48,3.85,-0.06,0.09,3.411,4.39,-16.43,19.61,2.48,-0.09,0.040,19.61,12.92,1.77,0.07,0.24,1.501,1.72,-17.70,19.61,0.46,-0.18,0.190,19.61,13.50,-0.72,0.25,0.26,-0.411,-0.31,-16.49,19.61,-1.22,-0.20,0.370,19.61,13.13,-2.66,0.41,0.32,-1.791,-1.38,-14.69,19.61,-2.35,-0.31,0.470,19.61,12.22,-2.89,0.47,0.44,-2.721,-0.28,-12.85,19.61,-3.14,-0.41,0.490,18.27,10.87,-0.52,0.50,0.42,-3.401,1.03,-11.36,17.15,-3.75,-0.20,0.520,15.03,9.73,1.96,0.56,0.01,-3.911,2.80,-9.67,14.00,-4.11,0.36,0.630,12.11,8.82,3.66,0.71,-0.62,-4.141,3.81,-8.26,11.29,-4.24,1.02,0.760,9.26,7.94,4.07,0.85,-1.24,-4.141,3.91,-6.91,8.71,-4.15,1.61,0.890,6.93,6.87,3.47,0.95,-1.75,-3.951,3.34,-5.66,6.85,-3.89,2.05,0.940,5.82,5.81,2.02,0.91,-2.11,-3.691,2.40,-4.89,6.15,-3.68,2.29,0.820,5.36,4.49,0.87,0.73,-2.25,-3.581,1.63,-4.19,5.73,-3.68,2.34,0.610,4.76,3.62,-0.29,0.53,-2.23,-3.681,0.89,-3.85,5.06,-3.86,2.20,0.420,4.05,2.71,-1.83,0.33,-1.94,-3.971,0.65,-3.31,4.24,-4.30,1.77,0.260,3.01,1.53,-2.56,0.24,-1.40,-4.371,0.25,-2.40,3.01,-4.37,1.16,0.250,1.30,0.40,-2.51,0.31,-0.83,-4.371,-0.05,-1.21,1.24,-4.37,0.69,0.360,-0.43,-0.26,-2.40,0.44,-0.48,-4.371,-0.45,-0.30,-0.30,-4.37,0.46,0.470,-2.16,-1.87,-1.96,0.51,-0.45,-4.371,-1.21,0.80,-1.20,-4.37,0.55,0.470,-2.24,-2.52,-3.40,0.41,-0.48,-4.371,-0.87,1.18,-0.95,-4.37,0.35,0.290,-3.06,-2.51,-4.01,0.25,0.10,-4.371,-0.06,2.42,-1.99,-4.37,-0.53,0.200,-4.75,-3.66,-3.63,0.20,1.05,-4.371,0.22,3.49,-3.85,-4.37,-1.46,0.150,-6.98,-4.37,-3.22,0.12,1.86,-4.371,-0.07,4.08,-5.79,-4.37,-2.19,0.050,-8.67,-4.07,-3.24,-0.02,2.52,-4.371,-0.37,4.18,-7.07,-4.37,-2.73,-0.060,-10.07,-4.51,-1.75,-0.04,2.82,-4.371,-0.25,5.12,-8.91,-4.37,-2.75,0.070,-12.29,-4.92,-0.94,0.23,2.61,-4.371,-0.45,6.71,-11.93,-4.37,-2.29,0.430,-15.14,-4.69,-0.94,0.75,1.98,-4.371,-1.54,8.46,-16.02,-4.37,-1.56,1.150,-18.68,-5.13,-0.83,1.60,1.00,-4.371,-3.57,10.90,-19.61,-4.14,-0.12,2.010,-19.61,-6.55,-1.70,2.43,-0.68,-2.841,-5.23,13.60,-19.61,-1.66,1.69,2.790,-19.61,-9.27,-4.22,3.08,-2.39,-0.351,-7.22,14.90,-19.61,0.64,3.17,3.160,-19.61,-11.89,-8.83,3.12,-3.35,1.561,-8.79,14.37,-19.61,1.98,3.51,2.930,-19.61,-14.13,-12.42,2.66,-3.10,2.221,-9.00,13.28,-19.61,2.04,2.76,2.240,-19.56,-14.16,-13.84,1.67,-2.02,1.881,-8.21,11.67,-19.44,1.57,1.37,0.990,-18.83,-11.61,-13.10,0.21,-0.51,1.441,-7.04,9.77,-18.96,1.26,-0.06,-0.440,-18.29,-9.52,-10.76,-1.07,0.68,1.241,-5.58,8.61,-18.48,1.23,-1.06,-1.420,-17.59,-7.66,-8.15,-1.73,1.46,1.361,-4.36,7.50,-17.29,1.50,-1.60,-1.770,-15.86,-6.29,-5.83,-1.90,1.72,1.711,-3.27,6.61,-14.83,1.86,-1.67,-1.820,-13.41,-5.57,-4.65,-1.90,1.70,2.081,-3.03,6.05,-12.79,2.25,-1.59,-1.810,-11.74,-4.98,-3.90,-1.87,1.53,2.471,-3.17,5.48,-11.46,2.62,-1.24,-1.750,-10.69,-4.52,-3.74,-1.80,1.02,2.851,-3.65,5.07,-10.35,3.05,-0.65,-1.730,-9.54,-3.72,-4.24,-1.86,0.42,3.311,-3.62,4.51,-9.01,3.52,-0.10,-1.850,-8.43,-3.01,-4.34,-2.02,0.02,3.791,-2.15,3.76,-7.89,4.03,0.09,-2.000,-7.59,-2.08,-3.58,-2.15,0.01,4.311,-0.96,2.27,-6.77,4.37,-0.01,-2.090,-6.79,-1.18,-2.73,-2.21,0.15,4.371,-0.43,0.81,-5.87,4.37,-0.10,-2.120,-5.82,-0.13,-2.21,-2.23,0.17,4.371,-0.17,-0.30,-4.89,4.37,-0.10,-2.110,-4.90,0.65,-1.70,-2.17,0.13,4.371,0.10,-0.90,-4.04,4.37,0.02,-2.010,-4.29,1.02,-1.04,-2.02,-0.06,4.371,0.42,-1.26,-3.29,4.37,0.21,-1.830,-3.54,1.63,-1.25,-1.85,-0.15,4.371,0.40,-2.18,-2.45,4.37,0.27,-1.690,-2.71,2.27,-1.35,-1.71,-0.21,4.371,0.12,-2.93,-1.74,4.37,0.32,-1.580,-2.23,2.84,-1.74,-1.65,-0.23,4.371,0.02,-3.26,-1.69,4.37,0.29,-1.550,-2.08,3.33,-1.58,-1.63,-0.20,4.371,0.32,-3.50,-1.18,4.37,0.33,-1.520,-1.41,3.86,-0.70,-1.57,-0.30,4.371,0.84,-3.87,-0.41,4.37,0.48,-1.430,-0.57,4.48,0.10,-1.44,-0.51,4.371,1.31,-4.28,0.41,4.37,0.76,-1.240,-0.07,4.97,0.92,-1.19,-0.89,4.371,1.28,-4.27,0.74,4.37,1.25,-0.960,-0.05,5.08,0.58,-0.91,-1.39,4.371,0.96,-3.84,1.24,4.37,1.69,-0.740,0.47,4.57,-0.21,-0.78,-1.72,4.371,0.96,-3.64,2.35,4.37,1.85,-0.700,2.27,4.32,-1.01,-0.83,-1.65,4.371,2.29,-4.32,5.24,4.37,1.50,-0.820,5.71,4.78,0.10,-0.94,-1.04,4.371,5.10,-5.92,9.51,4.37,0.75,-0.830,10.72,6.11,3.44,-0.79,-0.26,4.371,7.53,-8.60,14.08,4.37,0.02,-0.520,14.29,7.99,5.52,-0.38,0.34,4.371,7.83,-10.89,16.85,4.29,-0.48,-0.120,17.64,9.67,5.58,-0.08,0.75,3.801,6.77,-13.64,19.61,3.12,-0.80,0.030,19.61,11.64,4.19,-0.05,0.99,2.431,5.11,-16.12,19.61,1.59,-1.01,-0.030,19.61,13.12,3.14,-0.09,1.14,0.771,3.78,-17.40,19.61,-0.12,-1.07,-0.050,5.22,4.94,0.94,0.66,-1.59,-3.321,2.72,-5.44,5.14,-3.49,1.57,0.580,4.08,5.06,0.62,0.56,-1.40,-3.521,2.30,-5.47,4.14,-3.71,1.44,0.600,2.85,4.75,1.05,0.76,-1.36,-3.741,2.29,-4.97,2.80,-3.87,1.52,0.940,1.57,4.86,1.34,1.12,-1.59,-3.791,1.57,-4.35,1.48,-3.82,1.92,1.230,0.85,4.18,1.44,1.35,-2.16,-3.691,1.48,-4.01,1.51,-3.68,2.56,1.350,1.44,4.53,1.52,1.31,-2.79,-3.541,1.90,-4.37,2.20,-3.54,3.17,1.180,1.29,4.21,1.69,1.10,-3.27,-3.391,2.66,-3.81,1.85,-3.45,3.50,0.980,0.90,2.64,1.50,0.92,-3.48,-3.471,2.97,-2.91,1.65,-3.75,3.53,0.800,0.59,0.60,0.41,0.71,-3.21,-4.001,3.82,-1.70,0.74,-4.37,2.92,0.590,-1.62,-0.94,-0.15,0.49,-2.31,-4.371,4.18,0.22,-2.39,-4.37,1.67,0.310,-5.16,-2.75,-1.61,0.12,-0.77,-4.371,4.03,1.33,-5.84,-4.37,-0.05,-0.090,-8.72,-3.57,-1.84,-0.32,0.95,-4.371,3.63,1.62,-8.39,-4.37,-1.77,-0.550,-11.41,-3.74,-0.57,-0.73,2.49,-4.371,3.56,2.24,-11.50,-4.37,-2.94,-0.750,-15.83,-2.95,1.37,-0.62,3.21,-4.371,3.13,3.70,-16.45,-4.37,-3.20,-0.340,-19.61,-1.82,2.32,-0.02,2.98,-4.371,0.80,6.27,-19.61,-4.37,-2.54,0.310,-19.61,-2.83,-0.45,0.55,2.13,-4.371,-1.91,9.04,-19.61,-3.74,-1.65,0.730,-19.61,-4.23,-3.13,0.83,1.35,-2.461,-4.33,9.84,-19.61,-1.34,-0.97,0.890,-19.61,-5.37,-6.03,0.83,0.78,-0.291,-6.14,8.45,-19.61,0.42,-0.59,0.790,-19.61,-5.73,-8.72,0.74,0.63,0.981,-7.77,6.58,-19.61,1.21,-0.50,0.670,-19.61,-5.13,-10.12,0.43,0.63,1.441,-7.61,5.10,-19.61,1.46,-0.69,0.310,-19.61,-4.80,-10.44,0.04,0.93,1.501,-7.75,3.96,-19.53,1.43,-1.05,-0.160,-17.58,-3.66,-10.41,-0.52,1.30,1.441,-7.42,2.98,-16.78,1.41,-1.39,-0.810,-15.18,-2.47,-8.71,-1.21,1.55,1.481,-5.58,2.12,-14.34,1.49,-1.53,-1.390,-12.97,-1.45,-6.51,-1.63,1.59,1.571,-3.84,1.30,-12.47,1.62,-1.54,-1.620,-11.34,-1.32,-4.41,-1.73,1.56,1.681,-2.08,1.18,-11.44,1.73,-1.54,-1.640,-11.33,-0.44,-3.40,-1.67,1.64,1.921,-1.67,1.09,-11.54,2.09,-1.55,-1.500,-11.31,0.13,-3.08,-1.51,1.51,2.361,-2.14,0.95,-11.20,2.61,-1.30,-1.370,-10.46,0.23,-3.18,-1.44,1.15,2.941,-2.75,1.05,-9.56,3.20,-0.86,-1.410,-8.67,0.06,-3.65,-1.57,0.75,3.521,-2.50,1.15,-7.44,3.75,-0.55,-1.530,-6.49,0.07,-3.74,-1.64,0.55,4.001,-1.98,0.44,-5.13,4.15,-0.41,-1.630,-4.87,0.24,-3.88,-1.78,0.46,4.271,-2.33,-0.17,-3.83,4.30,-0.34,-1.770,-3.74,0.31,-3.77,-1.92,0.35,4.341,-2.23,-0.43,-2.94,4.34,-0.19,-1.850,-2.92,0.64,-3.63,-1.94,0.17,4.371,-2.30,-0.73,-2.02,4.37,0.01,-1.860,-1.75,0.90,-3.60,-2.01,-0.02,4.371,-1.98,-1.18,-0.55,4.34,0.18,-2.010,-0.27,1.07,-3.47,-2.22,-0.13,4.291,-1.09,-1.75,0.87,4.15,0.18,-2.210,0.98,1.44,-2.74,-2.37,-0.04,4.051,0.18,-2.31,1.85,3.89,0.01,-2.300,1.59,2.37,-1.57,-2.38,0.20,3.791,1.28,-3.29,1.70,3.70,-0.19,-2.210,0.97,4.15,0.35,-2.24,0.18,3.741,1.99,-4.22,1.23,3.81,0.03,-2.060,0.83,5.41,1.86,-2.04,-0.18,3.971,2.64,-4.73,1.49,4.12,0.54,-1.830,1.24,6.04,2.73,-1.75,-0.80,4.361,2.71,-4.94,2.52,4.37,1.30,-1.510,3.05,6.22,3.84,-1.42,-1.57,4.371,4.78,-5.25,5.69,4.37,2.00,-1.140,6.45,6.99,5.92,-1.00,-2.19,4.371,6.84,-6.98,9.45,4.37,2.60,-0.700,9.43,8.64,7.74,-0.53,-2.72,4.371,8.60,-8.63,11.88,4.37,2.97,-0.270,11.78,10.48,7.30,-0.27,-2.87,4.371,8.17,-11.11,14.68,4.37,2.93,-0.260,14.77,11.04,5.26,-0.32,-2.54,4.371,7.65,-12.94,19.00,4.37,2.29,-0.140,19.61,10.26,2.70,-0.11,-1.70,4.371,5.02,-15.53,19.61,3.29,1.32,0.010,19.61,10.18,-0.22,-0.01,-0.67,2.101,2.39,-15.11,19.61,0.91,0.30,0.090,19.61,10.46,-1.55,0.18,0.16,-0.011,0.20,-14.01,19.61,-0.85,-0.35,0.350,19.61,11.28,-2.45,0.44,0.57,-1.461,-0.97,-13.52,19.61,-2.05,-0.53,0.540,19.61,11.25,-1.43,0.58,0.52,-2.431,-0.29,-12.28,19.61,-2.83,-0.22,0.640,18.23,10.56,0.38,0.68,-0.00,-3.031,1.02,-10.95,17.82,-3.32,0.38,0.730,16.72,9.32,1.72,0.81,-0.55,-3.501,2.72,-9.64,16.56,-3.80,0.76,0.880,15.00,7.72,1.62,0.93,-0.74,-3.981,2.59,-8.08,14.77,-4.32,0.80,0.910,13.14,6.04,0.44,0.87,-0.68,-4.371,1.65,-6.59,13.30,-4.37,0.72,0.790,11.22,4.47,0.04,0.73,-0.61,-4.371,1.53,-4.82,11.31,-4.37,0.68,0.660,8.88,3.74,0.47,0.65,-0.63,-4.371,1.65,-3.62,8.67,-4.37,0.76,0.630,6.02,3.29,0.88,0.65,-0.81,-4.371,1.94,-2.59,6.07,-4.37,0.96,0.670,3.94,2.69,0.90,0.75,-0.93,-4.371,2.21,-1.92,3.89,-4.37,1.05,0.830,1.48,1.72,1.16,0.96,-1.07,-4.371,2.20,-1.05,1.40,-4.37,1.21,1.080,-0.36,0.76,-0.03,1.23,-1.10,-4.371,1.50,-0.25,-0.67,-4.37,1.15,1.320,-2.38,-1.60,-0.33,1.43,-1.11,-4.371,0.60,0.54,-2.10,-4.37,1.17,1.420,-3.41,-1.90,-2.23,1.37,-1.02,-4.371,-0.07,0.73,-2.29,-4.37,0.93,1.210,-2.87,-1.66,-3.10,1.03,-0.57,-4.371,1.09,0.82,-1.20,-4.37,0.29,0.800,-1.90,-1.66,-0.29,0.66,0.08,-4.371,4.29,0.69,-0.48,-4.37,-0.26,0.570,-2.43,-0.84,3.81,0.72,0.44,-4.371,6.12,0.84,-1.93,-4.37,-0.33,0.970,-5.09,-0.67,6.94,1.36,0.12,-4.371,6.26,2.24,-6.46,-4.37,0.50,1.740,-9.57,-1.15,7.75,2.12,-1.25,-4.371,3.68,3.58,-10.56,-4.37,2.28,2.270,-13.29,-2.79,3.57,2.39,-2.90,-4.371,2.00,6.16,-14.62,-4.37,3.37,2.290,-18.91,-5.29,-0.74,2.15,-3.35,-4.321,1.19,8.68,-19.61,-3.76,3.26,1.720,-19.61,-6.09,-1.71,1.24,-2.78,-2.911,3.52,9.71,-19.61,-2.27,2.46,0.890,-19.61,-7.99,0.49,0.75,-1.98,-1.691,3.85,9.96,-19.61,-1.43,1.66,0.720,-19.61,-10.15,-0.39,0.71,-1.25,-1.201,1.87,11.29,-19.61,-1.13,1.00,0.790,-19.61,-10.03,-2.29,0.88,-0.58,-0.741,-0.05,12.26,-19.61,-0.21,0.35,0.910,-19.61,-8.98,-3.17,0.76,-0.06,0.571,-1.07,11.64,-19.61,1.28,-0.01,0.540,-19.61,-7.51,-4.57,0.14,0.35,2.071,-1.49,9.09,-19.61,2.60,-0.54,-0.190,-19.61,-6.59,-4.50,-0.57,0.92,2.991,-0.78,6.17,-19.61,3.10,-1.17,-0.700,-16.76,-5.32,-3.66,-0.85,1.60,3.151,0.20,3.91,-14.00,2.96,-1.85,-0.770,-12.25,-4.51,-2.63,-0.79,2.17,2.791,0.03,3.26,-10.85,2.57,-2.24,-0.660,-9.84,-3.44,-1.72,-0.67,2.38,2.501,0.72,3.05,-9.13,2.48,-2.45,-0.550,-8.83,-2.36,-1.19,-0.63,2.67,2.631,0.80,2.34,-8.45,2.76,-2.70,-0.590,-8.64,-0.49,-0.90,-0.73,2.76,3.031,0.31,1.23,-8.33,3.31,-2.58,-0.690,-8.62,0.30,-0.59,-0.77,2.46,3.681,-0.16,1.18,-7.84,3.98,-2.19,-0.670,-7.61,0.30,-1.31,-0.73,2.12,4.341,-0.65,1.01,-6.64,4.37,-1.92,-0.610,-6.81,-0.13,-1.98,-0.68,1.86,4.371,-1.14,1.04,-6.10,4.37,-1.70,-0.590,-6.72,-0.13,-2.59,-0.70,1.74,4.371,-1.08,0.83,-5.43,4.37,-1.66,-0.670,-5.91,-0.00,-2.88,-0.86,1.73,4.371,-1.38,0.12,-4.24,4.37,-1.63,-0.880,-4.60,0.26,-3.12,-1.08,1.65,4.371,-1.70,-0.25,-2.73,4.37,-1.48,-1.080,-3.12,0.32,-3.13,-1.24,1.48,4.371,-1.47,-0.28,-1.24,4.37,-1.30,-1.150,-1.20,0.02,-2.51,-1.22,1.31,4.371,-0.57,-0.47,1.18,4.37,-1.21,-1.070,1.33,0.51,-1.83,-1.13,1.31,4.371,0.23,-1.53,3.14,4.37,-1.26,-0.970,2.64,1.73,-0.87,-0.99,1.29,4.371,-0.08,-3.03,3.89,4.37,-1.05,-0.830,3.20,3.02,-0.37,-0.88,0.89,4.371,-0.06,-3.20,4.35,4.37,-0.52,-0.720,4.06,3.41,-0.11,-0.70,0.38,4.371,0.86,-3.24,5.96,4.37,-0.10,-0.480,5.90,3.69,0.38,-0.42,0.08,4.371,1.85,-3.51,8.13,4.37,0.03,-0.220,8.66,3.59,0.57,-0.19,0.19,4.371,3.56,-3.63,11.53,4.37,-0.36,-0.050,12.42,4.30,0.83,-0.16,0.85,4.371,5.16,-5.05,16.93,4.37,-1.27,-0.190,19.61,4.75,1.98,-0.45,1.87,4.371,5.23,-9.87,19.61,4.17,-2.24,-0.520,19.61,6.90,1.80,-0.71,2.64,3.041,2.68,-14.48,19.61,1.72,-2.66,-0.670,19.61,10.46,1.00,-0.72,2.58,0.471,-0.96,-15.89,19.61,-0.61,-2.07,-0.720,19.61,12.63,-0.40,-0.83,1.50,-1.241,-3.20,-13.92,19.61,-1.58,-0.79,-0.830,9.86,4.06,0.16,-0.21,-0.25,-4.371,1.57,-4.10,9.06,-4.37,0.36,-0.210,6.73,3.89,1.01,-0.20,-0.39,-4.371,1.84,-3.42,6.46,-4.37,0.57,-0.200,4.37,3.98,1.24,-0.23,-0.68,-4.371,1.25,-3.32,4.04,-4.37,0.95,-0.290,2.87,3.77,0.29,-0.36,-1.07,-4.371,1.06,-3.03,3.38,-4.37,1.20,-0.400,3.11,3.01,-0.65,-0.42,-1.09,-4.331,0.84,-3.47,3.98,-4.37,1.03,-0.410,3.23,2.63,-1.74,-0.41,-0.77,-4.371,0.55,-3.46,3.72,-4.37,0.57,-0.400,2.84,1.85,-2.75,-0.42,-0.21,-4.371,0.17,-3.38,3.63,-4.37,-0.11,-0.430,1.98,0.99,-2.90,-0.43,0.52,-4.371,0.54,-2.64,2.57,-4.37,-0.83,-0.410,-0.05,-0.11,-1.07,-0.34,1.10,-4.371,1.23,-1.12,0.38,-4.37,-1.15,-0.250,-2.95,-1.09,-0.64,-0.17,1.21,-4.371,0.94,0.06,-1.99,-4.37,-1.28,-0.180,-5.18,-1.69,-1.56,-0.20,1.51,-4.371,1.14,1.53,-3.99,-4.37,-1.81,-0.260,-7.84,-2.25,-2.02,-0.27,2.19,-4.371,1.04,2.51,-6.56,-4.37,-2.47,-0.270,-10.20,-1.80,-0.98,-0.19,2.72,-4.371,1.44,2.92,-8.98,-4.37,-2.74,-0.060,-11.87,-1.02,0.75,0.13,2.69,-4.371,2.18,2.73,-10.94,-4.37,-2.49,0.370,-13.01,0.07,2.65,0.63,2.17,-4.371,2.26,2.59,-12.03,-4.37,-1.64,0.810,-13.31,-0.61,2.12,0.97,1.24,-4.371,1.96,3.96,-13.56,-4.37,-0.88,1.150,-14.22,-2.95,1.01,1.44,0.72,-4.371,1.43,5.66,-14.39,-4.13,-0.46,1.790,-15.63,-4.74,0.59,2.24,0.28,-3.711,-0.63,7.13,-17.38,-3.34,0.19,2.610,-18.36,-5.16,-1.19,2.88,-0.63,-2.681,-3.45,8.68,-19.44,-2.08,1.34,2.930,-18.72,-6.13,-3.95,2.91,-1.76,-1.251,-4.70,9.49,-18.59,-0.65,2.22,2.800,-17.66,-7.59,-6.32,2.64,-2.29,-0.061,-5.53,8.47,-17.51,0.18,2.46,2.350,-16.74,-7.68,-8.10,1.97,-2.19,0.381,-4.79,7.11,-17.17,0.29,1.98,1.540,-17.58,-7.40,-8.61,1.14,-1.37,0.301,-3.77,7.17,-19.34,0.21,0.96,0.840,-19.61,-7.33,-7.14,0.60,-0.41,0.311,-3.77,7.67,-19.61,0.41,0.21,0.510,-19.61,-6.43,-6.38,0.44,0.00,0.741,-4.81,8.27,-19.61,1.11,0.05,0.490,-19.61,-6.53,-6.95,0.46,0.01,1.671,-6.00,8.86,-19.61,2.12,0.15,0.480,-19.61,-7.03,-8.08,0.36,-0.06,2.611,-6.16,8.64,-19.61,2.90,0.10,0.270,-18.09,-7.48,-8.64,0.00,0.11,3.161,-6.06,7.62,-16.54,3.24,-0.19,-0.190,-14.67,-7.19,-8.60,-0.52,0.50,3.311,-5.23,6.53,-13.58,3.27,-0.65,-0.720,-12.41,-6.29,-7.68,-1.06,0.98,3.281,-3.99,5.63,-11.64,3.22,-1.14,-1.210,-10.90,-5.43,-6.44,-1.48,1.41,3.241,-3.49,4.87,-10.12,3.21,-1.48,-1.550,-9.27,-4.48,-5.20,-1.79,1.63,3.261,-2.56,3.99,-8.35,3.27,-1.62,-1.810,-7.60,-3.55,-3.90,-1.99,1.68,3.321,-1.97,3.09,-6.71,3.32,-1.59,-1.970,-6.10,-2.54,-2.90,-2.13,1.57,3.391,-1.24,2.26,-5.58,3.45,-1.39,-2.100,-5.44,-1.18,-2.11,-2.25,1.34,3.611,-0.61,1.56,-5.00,3.77,-1.18,-2.200,-4.96,-0.49,-1.59,-2.32,1.12,3.951,-0.24,0.61,-4.35,4.09,-0.91,-2.250,-4.24,0.42,-1.11,-2.36,0.81,4.271,0.12,-0.10,-3.47,4.37,-0.56,-2.270,-3.44,0.98,-0.84,-2.37,0.46,4.371,0.09,-0.67,-2.51,4.37,-0.24,-2.260,-2.38,1.29,-1.25,-2.36,0.20,4.371,0.46,-1.31,-1.39,4.37,-0.07,-2.240,-1.60,1.70,-1.03,-2.30,0.14,4.371,1.28,-2.21,-0.85,4.37,-0.08,-2.150,-1.37,2.86,-0.42,-2.24,0.18,4.371,1.48,-3.61,-0.50,4.37,-0.13,-2.150,-0.62,3.78,-0.08,-2.21,0.27,4.371,2.60,-4.50,0.21,4.37,-0.32,-2.010,-0.51,4.58,0.92,-1.99,0.48,4.371,2.98,-5.18,0.04,4.37,-0.45,-1.760,-0.13,5.49,1.40,-1.68,0.57,4.371,3.50,-5.76,1.20,4.37,-0.53,-1.380,1.93,6.14,2.38,-1.22,0.66,4.371,4.91,-6.23,4.21,4.37,-0.58,-0.880,5.76,6.91,5.01,-0.70,0.64,4.371,6.84,-7.47,8.38,4.37,-0.47,-0.360,9.05,7.93,6.84,-0.19,0.46,4.371,7.55,-8.78,10.91,4.27,-0.27,0.070,11.26,8.82,6.49,0.08,0.25,4.171,6.52,-10.15,12.99,3.97,-0.09,0.050,14.10,10.36,4.91,-0.25,0.16,3.771,6.05,-12.90,16.24,3.41,-0.07,-0.450,16.51,12.48,4.18,-0.80,0.16,3.031,5.34,-15.67,17.79,2.53,-0.09,-0.950,18.22,14.01,3.96,-1.10,0.17,2.001,4.90,-17.59,18.77,1.31,-0.08,-0.990,18.27,15.02,3.63,-0.89,0.08,0.651,3.82,-18.06,17.61,-0.06,0.10,-0.640,16.31,15.22,2.56,-0.43,-0.15,-0.601,2.91,-16.92,15.16,-1.16,0.34,-0.150,13.38,14.23,2.01,0.04,-0.38,-1.531,3.01,-14.49,12.33,-1.90,0.55,0.230,11.31,12.38,2.33,0.33,-0.53,-2.101,4.14,-12.48,10.88,-2.35,0.59,0.420,9.81,11.07,3.54,0.50,-0.51,-2.471,5.05,-10.93,9.35,-2.67,0.63,0.590,8.36,9.82,4.31,0.68,-0.63,-2.731,5.56,-9.50,8.24,-2.88,0.79,0.780,7.47,8.65,4.65,0.89,-0.78,-2.871,5.41,-8.22,7.35,-2.96,0.96,1.000,6.65,7.90,4.36,1.08,-1.01,-2.891,4.41,-7.50,6.56,-2.96,1.24,1.120,5.86,7.02,3.08,1.13,-1.32,-2.921,3.24,-6.90,6.09,-3.07,1.49,1.110,5.65,6.13,1.39,1.07,-1.41,-3.091,2.80,-6.36,5.81,-3.28,1.46,1.020,4.97,5.45,0.74,0.96,-1.33,-3.351,1.87,-6.09,4.77,-3.58,1.39,0.870,3.82,4.93,-0.20,0.79,-1.27,-3.681,1.28,-5.32,3.78,-3.92,1.28,0.720,2.71,3.84,-1.01,0.68,-1.11,-4.051,0.98,-4.38,2.66,-4.36,1.07,0.630,1.64,2.75,-1.62,0.62,-0.83,-4.371,0.89,-3.51,1.59,-4.37,0.60,0.590,-0.14,1.17,-2.39,0.60,-0.23,-4.371,0.47,-1.88,-0.47,-4.37,0.01,0.600,-2.99,-0.67,-1.93,0.69,0.30,-4.371,0.17,-0.04,-2.99,-4.37,-0.42,0.730,-5.21,-1.06,-2.82,0.71,0.64,-4.371,-0.53,0.58,-4.73,-4.37,-0.77,0.590,-6.78,-1.02,-3.17,0.46,1.02,-4.371,-0.32,1.36,-6.21,-4.37,-1.21,0.300,-8.16,-1.44,-2.91,0.16,1.50,-4.371,0.26,2.01,-7.49,-4.37,-1.70,0.050,-9.54,-1.70,-1.81,-0.05,1.95,-4.371,1.34,2.28,-8.86,-4.37,-2.11,-0.150,-10.19,-1.56,0.08,-0.25,2.27,-4.371,2.81,1.91,-9.28,-4.37,-2.35,-0.270,-11.35,-0.99,2.01,-0.21,2.38,-4.371,3.07,1.85,-11.39,-4.37,-2.24,0.000,-13.63,-0.88,2.53,0.37,2.10,-4.371,2.21,2.64,-14.14,-4.37,-1.65,0.880,-15.30,-1.58,3.37,1.48,1.12,-4.371,1.39,4.12,-15.55,-4.03,-0.34,2.070,-15.46,-2.88,2.65,2.64,-0.33,-3.481,-0.19,5.85,-16.05,-3.08,1.14,3.100,-17.39,-4.98,-0.25,3.46,-1.62,-2.431,-1.75,8.66,-18.80,-1.91,2.28,3.670,-19.61,-7.54,-2.48,3.85,-2.61,-1.231,-3.95,10.40,-19.61,-0.76,3.04,3.840,-19.61,-9.73,-7.09,3.74,-2.95,-0.171,-6.43,11.57,-19.61,0.05,3.01,3.430,-19.61,-10.90,-11.39,2.99,-2.62,0.341,-8.73,10.87,-19.61,0.52,2.31,2.370,-19.61,-9.26,-13.99,1.70,-1.69,0.851,-9.45,9.49,-19.61,1.02,1.22,1.000,-19.61,-8.14,-13.34,0.29,-0.63,1.281,-8.28,8.40,-19.61,1.45,0.23,-0.310,-19.61,-7.02,-10.88,-0.87,0.33,1.751,-5.41,7.57,-19.61,1.96,-0.67,-1.180,-18.35,-6.45,-7.24,-1.49,1.05,2.191,-3.24,6.58,-17.03,2.27,-1.26,-1.530,-15.26,-6.12,-5.41,-1.64,1.56,2.331,-2.24,5.69,-14.65,2.30,-1.72,-1.570,-13.91,-5.63,-4.54,-1.63,1.96,2.301,-2.26,5.07,-13.84,2.28,-2.02,-1.540,-13.57,-4.72,-4.40,-1.63,2.14,2.391,-2.44,5.04,-13.38,2.52,-2.07,-1.580,-12.79,-4.14,-3.77,-1.71,2.05,2.761,-2.60,4.99,-12.09,2.99,-1.88,-1.680,-11.19,-3.74,-3.26,-1.83,1.76,3.291,-2.33,4.60,-10.14,3.55,-1.47,-1.770,-9.26,-3.15,-2.64,-1.87,1.27,3.851,-2.05,4.07,-8.06,4.09,-0.96,-1.780,-7.29,-2.83,-2.71,-1.88,0.83,4.361,-1.38,3.32,-5.85,4.37,-0.58,-1.820,-5.26,-2.26,-2.18,-1.95,0.49,4.371,-0.91,2.20,-4.05,4.37,-0.27,-1.920,-3.91,-1.37,-1.82,-2.10,0.21,4.371,-0.35,1.34,-2.81,4.37,-0.01,-2.090,-2.93,-0.74,-1.24,-2.28,-0.05,4.371,0.16,0.73,-1.71,4.37,0.27,-2.240,-1.69,-0.21,-0.61,-2.36,-0.32,4.371,0.97,-0.03,-0.29,4.37,0.51,-2.230,-0.52,0.53,-0.30,-2.29,-0.51,4.371,1.41,-0.89,0.66,4.37,0.63,-2.140,0.17,1.40,-0.22,-2.19,-0.56,4.371,1.64,-1.80,1.17,4.37,0.66,-2.050,0.45,2.15,-0.02,-2.10,-0.61,4.371,1.43,-2.79,1.44,4.37,0.74,-1.960,0.60,3.00,-0.32,-2.00,-0.69,4.371,1.33,-3.42,1.30,4.37,0.78,-1.860,0.50,3.39,-0.70,-1.90,-0.69,4.371,0.85,-3.87,1.44,4.37,0.77,-1.750,9.33,7.82,6.01,-1.05,-0.08,4.371,7.44,-9.15,12.63,4.37,0.13,-1.120,13.76,8.55,5.57,-1.44,0.10,4.161,9.25,-11.74,17.23,3.67,-0.32,-1.580,18.04,10.94,7.14,-1.88,0.74,3.151,10.01,-15.53,19.12,2.60,-0.93,-2.030,18.64,14.82,7.90,-2.33,1.11,2.071,9.30,-19.61,18.98,1.37,-1.04,-2.310,18.01,17.24,8.83,-2.24,0.94,0.601,8.78,-19.61,17.19,-0.27,-0.68,-1.830,15.47,18.28,8.48,-1.41,0.54,-0.971,8.35,-19.61,13.58,-1.60,-0.31,-0.800,11.39,17.10,8.04,-0.27,0.17,-1.981,7.65,-17.39,10.11,-2.35,0.09,0.250,8.74,15.59,6.62,0.51,-0.14,-2.491,7.23,-14.82,8.46,-2.75,0.27,0.620,7.36,12.36,6.29,0.70,-0.19,-2.921,7.98,-11.82,6.65,-3.21,0.24,0.830,5.42,9.99,6.49,1.00,-0.09,-3.331,8.25,-9.62,5.00,-3.56,0.08,1.200,3.46,8.33,6.26,1.44,0.08,-3.611,7.51,-7.81,2.86,-3.76,-0.07,1.640,1.45,7.12,5.22,1.83,0.19,-3.711,6.32,-6.27,1.35,-3.76,-0.14,1.950,0.70,6.03,4.21,2.07,0.24,-3.631,5.16,-5.31,0.99,-3.65,-0.15,2.110,0.44,5.15,2.71,2.13,0.23,-3.551,3.76,-4.69,0.76,-3.63,-0.17,2.070,0.22,4.13,1.60,2.03,0.25,-3.591,2.73,-4.00,0.53,-3.71,-0.20,1.890,-0.24,3.54,0.43,1.80,0.32,-3.681,2.10,-3.45,-0.11,-3.80,-0.27,1.700,-0.91,3.25,0.47,1.65,0.37,-3.761,1.81,-3.38,-1.36,-3.83,-0.28,1.590,-2.57,3.67,0.35,1.57,0.26,-3.731,1.29,-3.28,-3.13,-3.75,-0.04,1.560,-3.80,3.20,0.23,1.59,-0.02,-3.651,1.36,-2.90,-3.98,-3.70,0.18,1.590,-4.67,2.95,-0.19,1.62,-0.14,-3.591,1.14,-2.52,-4.94,-3.60,0.27,1.640,-5.36,2.33,-0.64,1.68,-0.22,-3.511,0.57,-2.31,-5.55,-3.61,0.30,1.680,-5.86,1.79,-1.21,1.66,-0.21,-3.581,0.64,-1.91,-5.90,-3.67,0.29,1.630,-5.97,1.70,-0.72,1.66,-0.20,-3.591,1.32,-1.33,-5.75,-3.65,0.25,1.690,-6.02,0.69,-0.45,1.75,-0.15,-3.611,1.04,-0.65,-6.09,-3.77,0.21,1.740,-6.63,-0.14,-1.12,1.70,-0.08,-3.801,0.79,0.14,-7.46,-3.92,0.06,1.610,-8.69,-0.45,-1.27,1.52,0.09,-3.831,0.87,1.02,-9.67,-3.84,-0.01,1.460,-10.84,-0.71,-0.42,1.48,0.03,-3.641,0.91,1.70,-11.93,-3.52,0.12,1.540,-12.99,-1.05,-0.36,1.65,-0.16,-3.201,0.55,2.73,-14.05,-3.01,0.43,1.780,-14.70,-1.94,-0.28,1.92,-0.58,-2.651,-0.12,3.71,-15.89,-2.38,0.93,2.040,-16.61,-2.49,-1.01,2.17,-1.11,-1.901,-1.15,4.78,-17.85,-1.55,1.49,2.270,-18.27,-3.51,-2.17,2.35,-1.70,-1.021,-2.66,5.79,-19.26,-0.71,2.04,2.370,-19.08,-5.19,-4.72,2.34,-2.07,-0.311,-4.21,6.48,-19.61,-0.15,2.21,2.200,-19.38,-5.95,-7.19,1.96,-1.99,0.101,-4.93,6.17,-19.61,0.16,1.89,1.660,-19.43,-5.54,-8.92,1.28,-1.44,0.311,-5.19,5.30,-19.61,0.33,1.08,0.920,-19.61,-4.56,-8.94,0.52,-0.54,0.491,-4.75,4.30,-19.61,0.54,0.25,0.240,-19.61,-3.78,-7.69,-0.05,0.17,0.671,-3.96,3.65,-19.44,0.68,-0.41,-0.180,-18.28,-3.56,-6.66,-0.34,0.75,0.741,-3.43,3.54,-18.19,0.75,-0.92,-0.350,-17.23,-3.13,-6.22,-0.49,1.22,0.891,-3.35,3.51,-17.07,0.97,-1.32,-0.530,-16.08,-2.85,-5.65,-0.71,1.52,1.161,-3.60,3.38,-15.71,1.27,-1.56,-0.810,-14.74,-2.93,-5.56,-1.06,1.71,1.461,-3.24,3.38,-14.45,1.57,-1.70,-1.160,-13.57,-2.60,-4.75,-1.40,1.77,1.781,-3.04,3.08,-13.16,1.91,-1.66,-1.460,-12.18,-2.56,-4.59,-1.66,1.68,2.071,-2.68,2.74,-11.65,2.21,-1.60,-1.700,-10.91,-1.87,-3.79,-1.87,1.60,2.411,-1.99,2.06,-10.10,2.54,-1.45,-1.860,-9.22,-1.19,-3.07,-2.05,1.41,2.701,-1.39,1.27,-8.44,2.80,-1.24,-2.040,-7.69,-0.55,-2.28,-2.18,1.21,2.941,0.02,0.73,-6.71,3.05,-1.09,-2.110,-6.26,0.02,-0.78,-2.18,1.09,3.171,0.94,-0.26,-5.94,3.24,-0.96,-2.010,-6.15,1.09,-0.23,-2.03,0.91,3.361,0.78,-1.22,-6.09,3.40,-0.63,-1.870,-6.36,1.77,-0.02,-1.90,0.47,3.471,0.64,-1.51,-6.47,3.55,-0.25,-1.770,-6.62,2.00,-0.58,-1.84,0.20,3.701,0.44,-1.56,-6.20,3.78,-0.04,-1.750,-5.89,1.86,-1.09,-1.86,0.02,3.851,0.31,-2.25,-4.91,3.82,0.05,-1.800,-4.68,2.39,-1.85,-1.89,0.14,3.821,0.58,-2.89,-3.97,3.72,-0.15,-1.810,-4.04,2.66,-1.25,-1.93,0.25,3.661,1.05,-3.04,-3.38,3.59,-0.22,-1.870,-3.06,3.12,-0.44,-1.96,0.39,3.611,2.72,-3.54,-1.94,3.60,-0.43,-1.830,-1.60,4.32,1.52,-1.85,0.56,3.651,4.03,-5.25,-0.42,3.65,-0.48,-1.640,-0.20,6.27,3.30,-1.55,0.48,3.711,4.60,-6.74,0.56,3.73,-0.26,-1.220,0.44,7.55,4.24,-1.04,0.11,3.841,4.13,-7.02,1.46,3.93,0.26,-0.740,2.12,7.64,3.94,-0.67,-0.44,4.111,4.20,-7.15,4.51,4.16,0.75,-0.550,5.51,7.47,3.56,-0.66,-0.83,4.171,3.86,-8.48,7.87,3.98,1.10,-0.700,8.21,8.10,2.68,-0.94,-1.13,3.761,3.02,-10.13,9.26,3.42,1.29,-1.090,8.62,9.45,1.06,-1.38,-1.20,3.131,2.60,-11.56,8.80,2.73,1.23,-1.470,7.77,10.55,0.66,-1.59,-1.05,2.411,2.82,-12.19,7.11,2.07,1.02,-1.490,5.88,11.59,0.91,-1.46,-0.83,1.871,3.20,-12.62,5.78,1.67,0.78,-1.280,5.85,12.26,1.39,-1.21,-0.54,1.571,4.15,-13.01,6.90,1.34,0.43,-1.030,8.09,11.86,2.37,-0.96,-0.13,1.141,5.95,-12.79,9.99,0.78,-0.06,-0.740,12.10,11.08,4.57,-0.60,0.43,0.411,8.22,-13.57,13.92,-0.12,-0.69,-0.360,14.54,11.96,6.82,-0.23,1.01,-0.561,9.04,-14.69,14.98,-1.10,-1.08,-0.050,14.28,13.40,7.92,-0.03,1.05,-1.491,7.53,-15.22,13.65,-1.96,-0.74,0.010,12.28,13.38,7.39,0.04,0.49,-2.251,6.56,-14.12,11.85,-2.58,-0.12,0.160,10.55,12.76,6.27,0.26,-0.08,-2.711,5.94,-12.96,10.11,-2.94,0.42,0.370,8.83,11.60,5.83,0.45,-0.60,-3.061,5.91,-11.64,8.21,-3.29,0.92,0.520,6.62,10.25,5.58,0.60,-1.04,-3.371,6.05,-9.97,6.01,-3.62,1.28,0.700,4.13,8.39,4.97,0.82,-1.27,-3.711,5.87,-7.99,3.11,-3.91,1.35,0.890,1.21,6.78,4.09,0.94,-1.24,-3.911,5.56,-6.14,0.52,-3.99,1.20,0.930,-0.76,5.62,3.10,0.93,-0.93,-3.901,5.63,-4.95,-0.79,-3.93,0.79,0.950,-1.74,4.57,3.51,1.01,-0.60,-3.841,4.91,-4.23,-1.46,-3.94,0.65,1.070,-1.91,3.64,3.35,1.16,-0.60,-3.931,4.54,-3.48,-1.42,-4.05,0.73,1.260,-1.72,2.86,3.30,1.39,-0.72,-4.031,4.08,-2.67,-1.27,-4.17,0.94,1.490,-1.62,1.91,3.27,1.64,-1.03,-4.151,3.39,-1.68,-1.34,-4.27,1.32,1.710,-2.11,1.33,2.18,1.77,-1.40,-4.191,2.56,-0.84,-2.25,-4.24,1.64,1.740,-3.52,0.74,0.57,1.69,-1.55,-4.071,2.14,0.01,-4.07,-4.05,1.55,1.550,-5.28,-0.23,-0.33,1.42,-1.31,-3.891,2.04,0.53,-5.50,-3.93,1.21,1.220,-6.07,-0.75,-0.46,1.03,-0.90,-3.891,2.68,0.06,-5.60,-4.03,0.71,0.810,-6.26,-0.45,-0.19,0.60,-0.36,-4.091,2.66,-0.48,-6.10,-4.33,0.18,0.420,-6.63,-0.51,0.46,0.32,0.07,-4.371,3.13,-0.15,-6.66,-4.37,-0.14,0.300,-7.89,-1.17,1.68,0.35,0.29,-4.371,4.17,1.37,-8.49,-4.37,-0.31,0.440,-10.23,-2.26,3.00,0.53,0.38,-4.371,4.66,2.78,-11.40,-4.37,-0.27,0.610,-13.80,-2.48,3.66,0.68,0.26,-4.371,5.15,4.19,-16.15,-4.37,-0.06,0.770,-19.15,-2.92,5.38,0.97,-0.12,-4.061,5.49,6.20,-19.61,-3.54,0.57,1.270,-19.61,-3.85,5.38,1.62,-0.94,-2.691,3.32,9.11,-19.61,-1.86,1.57,1.940,-19.61,-6.27,3.09,2.25,-2.05,-0.861,0.07,11.15,-19.61,-0.05,2.73,2.480,-19.61,-8.19,-2.21,2.58,-2.88,0.871,-2.43,11.17,-19.61,1.55,2.97,2.470,-19.61,-8.39,-6.29,2.19,-2.55,2.211,-3.22,8.97,-19.61,2.53,2.16,1.790,-19.61,-7.33,-8.76,1.23,-1.28,2.801,-1.98,6.68,-19.61,2.84,0.51,0.730,-19.61,-6.04,-7.59,0.18,0.46,2.881,-0.88,4.76,-19.61,2.70,-1.22,-0.260,-17.21,-5.61,-5.36,-0.74,2.08,2.491,1.18,3.66,-14.96,2.14,-2.75,-0.950,-13.64,-4.88,-2.68,-1.23,3.46,1.841,2.01,2.77,-12.70,1.52,-3.91,-1.290,-12.69,-3.64,-0.95,-1.54,4.27,1.331,2.01,2.53,-12.18,1.20,-4.37,-1.580,-12.30,-2.94,0.60,-1.75,4.37,1.221,2.27,2.87,-11.67,1.29,-4.37,-1.690,-11.89,-2.18,1.74,-1.76,4.27,1.491,2.02,3.07,-11.44,1.75,-3.97,-1.630,-11.65,-1.59,2.27,-1.66,3.64,2.161,1.74,3.09,-11.22,2.60,-3.18,-1.510,10.58,7.92,6.05,-0.86,-1.92,4.371,10.94,-10.35,14.96,4.37,1.30,-0.860,17.21,9.27,5.90,-1.06,-0.32,4.181,11.14,-14.97,19.61,3.16,-0.43,-1.110,19.61,11.28,5.99,-1.30,1.17,1.961,8.72,-17.87,19.61,0.73,-1.51,-1.240,19.61,13.75,6.12,-1.20,1.77,-0.301,6.91,-17.69,18.26,-1.11,-1.74,-0.980,16.06,15.58,6.20,-0.81,1.64,-1.601,5.64,-17.69,14.54,-2.02,-1.33,-0.600,12.29,16.64,6.21,-0.45,1.08,-2.201,6.32,-16.86,10.82,-2.34,-0.69,-0.230,9.33,16.63,7.37,-0.03,0.41,-2.291,7.67,-15.94,8.71,-2.35,-0.05,0.180,7.60,14.99,8.48,0.36,-0.17,-2.321,8.95,-13.88,7.25,-2.41,0.50,0.610,6.68,12.64,9.00,0.87,-0.62,-2.381,9.32,-11.50,6.81,-2.50,0.83,1.140,6.34,10.48,8.13,1.37,-0.82,-2.461,8.89,-9.67,6.40,-2.57,0.95,1.550,5.73,8.70,7.34,1.71,-0.91,-2.571,7.35,-8.43,5.79,-2.71,1.08,1.790,4.93,7.68,5.42,1.81,-1.07,-2.681,5.60,-7.18,4.67,-2.79,1.27,1.800,4.01,6.22,3.97,1.79,-1.28,-2.761,4.28,-5.95,4.04,-2.86,1.45,1.750,3.47,5.41,2.18,1.72,-1.34,-2.801,3.47,-5.25,3.43,-2.91,1.38,1.640,2.87,4.75,1.22,1.54,-1.23,-2.901,2.81,-5.31,2.86,-3.09,1.28,1.440,2.40,4.41,0.52,1.38,-1.13,-3.201,2.30,-5.22,2.43,-3.49,1.14,1.330,1.65,3.73,0.54,1.34,-0.99,-3.671,2.19,-4.68,1.78,-4.04,1.06,1.350,0.65,3.01,-0.15,1.36,-0.95,-4.251,1.79,-3.56,0.44,-4.37,0.90,1.330,-0.96,2.08,-0.64,1.34,-0.61,-4.371,1.95,-2.23,-1.14,-4.37,0.51,1.320,-2.44,1.42,-0.21,1.34,-0.28,-4.371,1.77,-1.85,-2.11,-4.37,0.26,1.280,-2.85,1.02,-0.38,1.22,-0.11,-4.371,1.89,-1.42,-2.31,-4.37,0.10,1.150,-3.50,0.06,-0.89,1.13,0.15,-4.371,1.82,-0.44,-2.78,-4.37,-0.39,1.060,-4.59,-1.18,-1.65,1.01,0.79,-4.371,1.85,0.87,-4.47,-4.37,-1.05,0.980,-6.93,-2.13,-1.04,0.98,1.33,-4.371,1.59,2.27,-7.06,-4.37,-1.47,0.930,-9.13,-2.43,-1.65,0.86,1.68,-4.371,0.62,2.43,-8.56,-4.37,-1.85,0.730,-10.72,-2.02,-2.12,0.65,2.14,-4.371,0.98,2.96,-10.58,-4.37,-2.29,0.600,-13.05,-2.15,-0.34,0.65,2.36,-4.371,1.16,3.51,-13.39,-4.37,-2.17,0.790,-15.48,-1.06,1.32,1.05,1.90,-4.371,0.91,4.03,-15.92,-4.37,-1.36,1.410,-16.41,-1.14,2.45,1.86,0.77,-3.621,0.11,5.18,-16.25,-2.97,0.13,2.330,-15.20,-3.19,1.70,2.79,-0.89,-2.221,-1.56,7.10,-15.07,-1.73,1.75,3.130,-14.57,-6.31,-1.12,3.42,-2.30,-1.181,-3.55,8.52,-15.37,-0.90,2.89,3.490,-16.05,-8.30,-6.26,3.43,-2.92,-0.521,-5.43,9.12,-17.20,-0.35,2.82,3.080,-17.98,-8.30,-10.73,2.57,-2.19,-0.091,-6.40,8.20,-19.11,-0.05,1.74,1.950,-19.19,-7.63,-10.38,1.31,-1.16,0.081,-5.83,6.99,-19.47,0.04,0.81,0.750,-18.69,-6.81,-8.76,0.28,-0.34,0.091,-4.36,6.30,-18.87,0.02,0.04,0.020,-18.14,-6.17,-6.85,-0.17,0.37,0.071,-3.43,6.16,-18.75,0.09,-0.56,-0.170,-18.39,-5.57,-5.94,-0.20,0.78,0.281,-4.20,6.28,-19.09,0.43,-0.76,-0.100,-18.82,-5.36,-6.42,-0.13,0.82,0.721,-5.52,6.65,-19.18,0.98,-0.68,-0.140,-17.97,-5.38,-7.25,-0.32,0.66,1.361,-5.92,6.85,-17.62,1.63,-0.48,-0.440,-16.00,-5.49,-7.36,-0.72,0.50,1.991,-5.36,6.39,-15.34,2.21,-0.41,-0.890,-13.85,-5.32,-6.69,-1.17,0.48,2.441,-4.24,5.55,-13.26,2.53,-0.44,-1.280,-12.38,-5.02,-5.89,-1.49,0.57,2.651,-3.24,4.89,-12.07,2.69,-0.59,-1.510,-11.51,-4.23,-5.20,-1.67,0.75,2.811,-2.64,4.14,-11.16,2.89,-0.79,-1.680,-10.63,-3.14,-4.53,-1.85,0.92,3.051,-2.27,3.10,-9.86,3.15,-0.88,-1.850,-8.98,-2.40,-3.56,-2.01,0.93,3.281,-1.56,2.49,-8.09,3.34,-0.82,-1.970,-7.33,-2.07,-2.88,-2.08,0.81,3.411,-1.25,1.86,-6.58,3.42,-0.66,-2.000,-6.20,-1.52,-2.34,-2.10,0.60,3.461,-1.34,1.34,-5.95,3.44,-0.36,-2.020,-5.84,-1.09,-2.33,-2.13,0.25,3.481,-1.06,1.13,-5.73,3.51,-0.03,-2.060,-5.86,-0.57,-2.15,-2.18,0.04,3.631,-0.36,0.78,-5.47,3.72,0.10,-2.140,-5.37,0.01,-1.75,-2.29,-0.09,3.841,-0.23,-0.08,-4.94,3.90,0.24,-2.260,-5.26,0.77,-1.61,-2.41,-0.25,4.011,0.12,-0.53,-5.06,4.09,0.36,-2.350,-5.21,1.43,-1.12,-2.47,-0.32,4.251,1.38,-0.90,-4.32,4.35,0.40,-2.350,-4.29,1.53,0.07,-2.36,-0.25,4.371,3.03,-1.43,-3.01,4.37,0.21,-2.140,-2.79,2.15,0.86,-2.14,-0.03,4.371,2.73,-3.09,-1.44,4.37,0.04,-2.000,-1.16,2.81,0.72,-2.07,0.05,4.341,2.42,-3.73,-0.28,4.13,0.06,-1.960,-0.47,2.85,1.41,-2.01,-0.03,3.991,3.31,-3.42,0.32,3.86,0.16,-1.850,0.14,3.57,2.59,-1.83,-0.11,3.861,4.43,-3.99,0.82,3.88,0.25,-1.630,0.52,4.92,3.62,-1.62,-0.30,3.961,4.10,-5.04,0.95,3.97,0.58,-1.500,0.33,5.37,3.29,-1.58,-0.72,4.031,3.69,-4.84,0.78,4.04,0.98,-1.510,0.18,4.81,2.45,-1.62,-0.96,4.111,4.71,-4.34,1.30,4.13,0.94,-1.570,1.81,4.79,2.30,-1.71,-0.57,4.201,6.66,-5.32,4.29,4.17,0.26,-1.680,6.00,5.79,4.66,-1.80,0.29,4.101,10.19,-7.76,9.77,3.81,-0.61,-1.640,12.01,7.76,9.44,-1.54,1.05,3.421,13.89,-11.64,15.08,2.88,-1.26,-1.140,15.32,11.08,13.28,-0.91,1.42,2.361,13.28,-15.12,15.55,1.80,-1.19,-0.630,14.19,14.72,13.09,-0.61,0.87,1.471,10.75,-16.71,13.68,1.20,-0.33,-0.540,12.84,16.75,10.68,-0.58,0.04,1.121,9.76,-17.60,13.16,0.95,0.28,-0.490,13.31,17.13,8.94,-0.47,-0.32,0.751,9.44,-19.30,13.68,0.27,0.41,-0.330,13.22,17.31,7.59,-0.22,-0.27,-0.201,8.86,-19.42,12.91,-0.83,0.24,-0.030,11.77,16.18,6.64,0.12,0.01,-1.331,8.58,-17.37,11.11,-1.92,-0.08,0.320,9.99,14.31,7.01,0.38,0.23,-2.291,9.23,-14.56,9.81,-2.66,-0.29,0.560,8.73,12.86,8.08,0.74,0.45,-2.811,9.57,-12.62,8.68,-3.01,-0.41,0.920,7.61,11.26,8.82,1.12,0.42,-3.051,9.36,-10.79,7.61,-3.21,-0.23,1.310,6.57,9.74,8.43,1.49,0.16,-3.191,8.30,-9.12,6.30,-3.30,0.11,1.650,5.30,8.42,7.25,1.80,-0.24,-3.221,6.92,-7.51,5.19,-3.28,0.55,1.910,4.23,6.87,5.70,2.05,-0.68,-3.191,5.56,-6.12,4.14,-3.26,0.96,2.130,3.18,5.41,3.90,2.20,-1.00,-3.181,4.49,-5.10,3.11,-3.29,1.16,2.160,2.33,4.34,2.02,2.11,-1.05,-3.261,3.70,-4.47,2.26,-3.42,1.04,1.940,1.27,3.84,1.23,1.80,-0.83,-3.431,3.04,-4.28,0.82,-3.58,0.84,1.640,-0.19,3.68,1.17,1.53,-0.76,-3.581,2.19,-3.89,-0.28,-3.75,0.89,1.360,-0.89,2.85,0.05,1.24,-0.74,-3.791,2.21,-3.00,-0.57,-4.02,0.71,1.120,-1.31,1.32,-0.27,1.06,-0.44,-4.151,2.30,-1.86,-1.02,-4.37,0.29,1.040,-1.91,0.38,-0.47,1.05,0.00,-4.371,2.17,-1.26,-1.89,-4.37,-0.20,1.070,-3.33,0.37,-0.79,1.12,0.49,-4.371,1.57,-0.91,-3.22,-4.37,-0.58,1.120,-4.52,0.35,-0.50,1.15,0.74,-4.371,1.48,-0.39,-4.08,-4.37,-0.72,1.170,-4.97,0.29,-0.43,1.23,0.81,-4.371,1.10,-0.09,-4.41,-4.37,-0.75,1.240,-5.60,-0.37,-0.93,1.26,0.81,-4.371,0.80,0.87,-5.02,-4.37,-0.79,1.280,-6.05,-1.34,-1.53,1.29,0.91,-4.371,0.47,1.56,-5.53,-4.37,-0.94,1.190,-6.63,-1.76,-1.53,1.07,1.07,-4.371,0.60,1.85,-6.25,-4.37,-1.03,0.930,-7.08,-1.92,-0.55,0.84,1.04,-4.371,1.11,1.88,-6.67,-4.37,-0.87,0.820,-7.83,-2.03,0.95,0.89,0.72,-4.371,1.60,2.78,-7.82,-4.37,-0.39,1.010,-9.28,-2.67,1.45,1.20,0.17,-4.371,2.00,4.19,-9.81,-4.37,0.14,1.400,-11.71,-2.84,1.35,1.65,-0.29,-4.371,1.82,5.05,-12.74,-4.12,0.60,1.870,-13.96,-2.81,1.32,2.06,-0.80,-3.471,1.63,5.65,-14.53,-2.97,1.18,2.190,-14.40,-3.19,1.15,2.34,-1.37,-2.331,1.51,5.49,-14.37,-1.90,1.74,2.430,-13.41,-4.40,0.85,2.59,-1.92,-1.461,0.80,5.86,-13.11,-1.37,2.27,2.700,-12.58,-6.89,-0.28,2.83,-2.32,-1.261,0.23,7.29,-12.99,-1.39,2.57,2.870,-13.57,-8.51,-1.61,2.89,-2.52,-1.341,-0.59,8.78,-14.70,-1.40,2.61,2.810,-15.72,-9.15,-3.74,2.68,-2.36,-1.231,-1.57,10.07,-17.17,-1.15,2.30,2.430,-18.10,-9.32,-4.48,2.14,-2.03,-0.821,-2.31,10.23,-19.59,-0.58,2.04,1.790,-19.61,-8.75,-4.85,1.48,-1.85,-0.171,-2.88,10.08,-19.61,0.09,1.83,1.16